{
	"resourceType": "Bundle",
	"type": "transaction",
	"entry": [
		{
			"resource": {
				"identifier": [
					{
						"extension": [
							{
								"valueReference": {
									"reference": "Location/86863db4-6101-4ecf-9a86-5e716d6504e4",
									"display": "ART Clinic",
									"type": "Location"
								},
								"url": "http://fhir.openmrs.org/ext/patient/identifier#location"
							}
						],
						"use": "official",
						"id": "6d71a17a-55d6-4858-b5ed-a85d081365a7",
						"type": {
							"coding": [
								{
									"system": "UgandaEMR",
									"code": "05a29f94-c0ed-11e2-94be-8c13b969e334"
								}
							],
							"text": "OpenMRS ID"
						},
						"value": "10V6E3"
					},
					{
						"use": "usual",
						"id": "270d8f89-cc2d-41ca-bc94-e91951ff3801",
						"type": {
							"coding": [
								{
									"system": "UgandaEMR",
									"code": "f0c16a6d-dc5f-4118-a803-616d0075d282"
								}
							],
							"text": "National ID No."
						},
						"value": "CM7803420W5P7K"
					},
					{
						"use": "usual",
						"id": "2540b291-1a4b-4651-b049-9d31120a7a03",
						"type": {
							"coding": [
								{
									"system": "UgandaEMR",
									"code": "8110f2d2-1f98-4c38-aef3-11b19bb0a589"
								}
							],
							"text": "TB No."
						},
						"value": "68574633"
					}
				],
				"address": [
					{
						"country": "Uganda",
						"extension": [
							{
								"extension": [
									{
										"valueString": "MAKINDYE DIVISION",
										"url": "http://fhir.openmrs.org/ext/address#subcounty"
									},
									{
										"valueString": "Muyenga",
										"url": "http://fhir.openmrs.org/ext/address#parish"
									},
									{
										"valueString": "Bukasa",
										"url": "http://fhir.openmrs.org/ext/address#village"
									}
								],
								"url": "http://fhir.openmrs.org/ext/address"
							}
						],
						"use": "home",
						"id": "520f8ea6-a5bf-412d-b486-915c49227297",
						"state": "KCCA"
					}
				],
				"gender": "male",
				"active": true,
				"birthDate": "1977-01-01",
				"contained": [
					{
						"agent": [
							{
								"role": [
									{
										"coding": [
											{
												"system": "http://terminology.hl7.org/CodeSystemv3-ParticipationType",
												"code": "AUT",
												"display": "author"
											}
										]
									}
								],
								"type": {
									"coding": [
										{
											"system": "http://terminology.hl7.org/CodeSystemprovenance-participant-type",
											"code": "author",
											"display": "Author"
										}
									]
								},
								"who": {
									"reference": "Practitioner/1c3db49d-440a-11e6-a65c-00e04c680037",
									"display": "Emerson Kaseem",
									"type": "Practitioner"
								}
							}
						],
						"activity": {
							"coding": [
								{
									"system": "http://terminology.hl7.org/CodeSystemv3-DataOperation",
									"code": "CREATE",
									"display": "create"
								}
							]
						},
						"id": "1e83abcb-df8b-4b0d-b797-5cca9ba1ed82",
						"recorded": "2022-06-07T13:03:22.000+03:00",
						"resourceType": "Provenance"
					},
					{
						"agent": [
							{
								"role": [
									{
										"coding": [
											{
												"system": "http://terminology.hl7.org/CodeSystemv3-ParticipationType",
												"code": "AUT",
												"display": "author"
											}
										]
									}
								],
								"type": {
									"coding": [
										{
											"system": "http://terminology.hl7.org/CodeSystemprovenance-participant-type",
											"code": "author",
											"display": "Author"
										}
									]
								},
								"who": {
									"reference": "Practitioner/1c3db49d-440a-11e6-a65c-00e04c680037",
									"display": "Emerson Kaseem",
									"type": "Practitioner"
								}
							}
						],
						"activity": {
							"coding": [
								{
									"system": "http://terminology.hl7.org/CodeSystemv3-DataOperation",
									"code": "UPDATE",
									"display": "revise"
								}
							]
						},
						"id": "f1527d6a-da35-4822-aede-5e78e37d2a53",
						"recorded": "2022-06-07T14:58:49.000+03:00",
						"resourceType": "Provenance"
					}
				],
				"deceasedBoolean": false,
				"managingOrganization": {
					"reference": "Organization/wepUthscBkh",
					"identifier": {
						"system": "https://hmis.health.go.ug/",
						"use": "official",
						"value": "wepUthscBkh"
					},
					"display": "Demo Health Center",
					"type": "Organization"
				},
				"meta": {
					"lastUpdated": "2022-06-07T14:58:49.000+03:00"
				},
				"name": [
					{
						"given": ["Tom"],
						"id": "94e0c75b-7b6f-4dac-990c-bc106271439a",
						"family": "James"
					}
				],
				"telecom": [
					{
						"id": "f295c1c0-68d0-4d28-9bcb-8fddffbf1db1",
						"value": "0776439759"
					}
				],
				"id": "c350f310-fd89-44de-ad75-bb7827ca1d5b",
				"resourceType": "Patient"
			},
			"request": {
				"method": "PUT",
				"url": "Patient/c350f310-fd89-44de-ad75-bb7827ca1d5b"
			}
		},
		{
			"resource": {
				"resourceType": "Person",
				"id": "c350f310-fd89-44de-ad75-bb7827ca1d5b",
				"meta": {
					"lastUpdated": "2022-06-07T14:58:49.000+03:00"
				},
				"contained": [
					{
						"resourceType": "Provenance",
						"id": "dc436ef3-e027-4e80-a1fa-5e4a9f760520",
						"recorded": "2022-06-07T13:03:22.000+03:00",
						"activity": {
							"coding": [
								{
									"system": "http://terminology.hl7.org/CodeSystemv3-DataOperation",
									"code": "CREATE",
									"display": "create"
								}
							]
						},
						"agent": [
							{
								"type": {
									"coding": [
										{
											"system": "http://terminology.hl7.org/CodeSystemprovenance-participant-type",
											"code": "author",
											"display": "Author"
										}
									]
								},
								"role": [
									{
										"coding": [
											{
												"system": "http://terminology.hl7.org/CodeSystemv3-ParticipationType",
												"code": "AUT",
												"display": "author"
											}
										]
									}
								],
								"who": {
									"reference": "Practitioner/1c3db49d-440a-11e6-a65c-00e04c680037",
									"type": "Practitioner",
									"display": "Emerson Kaseem"
								}
							}
						]
					},
					{
						"resourceType": "Provenance",
						"id": "938edac5-afdf-40c0-beeb-762492257162",
						"recorded": "2022-06-07T14:58:49.000+03:00",
						"activity": {
							"coding": [
								{
									"system": "http://terminology.hl7.org/CodeSystemv3-DataOperation",
									"code": "UPDATE",
									"display": "revise"
								}
							]
						},
						"agent": [
							{
								"type": {
									"coding": [
										{
											"system": "http://terminology.hl7.org/CodeSystemprovenance-participant-type",
											"code": "author",
											"display": "Author"
										}
									]
								},
								"role": [
									{
										"coding": [
											{
												"system": "http://terminology.hl7.org/CodeSystemv3-ParticipationType",
												"code": "AUT",
												"display": "author"
											}
										]
									}
								],
								"who": {
									"reference": "Practitioner/1c3db49d-440a-11e6-a65c-00e04c680037",
									"type": "Practitioner",
									"display": "Emerson Kaseem"
								}
							}
						]
					}
				],
				"name": [
					{
						"id": "94e0c75b-7b6f-4dac-990c-bc106271439a",
						"family": "James",
						"given": ["Tom"]
					}
				],
				"gender": "male",
				"birthDate": "1977-01-01",
				"address": [
					{
						"id": "520f8ea6-a5bf-412d-b486-915c49227297",
						"extension": [
							{
								"url": "http://fhir.openmrs.org/ext/address",
								"extension": [
									{
										"url": "http://fhir.openmrs.org/ext/address#subcounty",
										"valueString": "MAKINDYE DIVISION"
									},
									{
										"url": "http://fhir.openmrs.org/ext/address#address4",
										"valueString": "Muyenga"
									},
									{
										"url": "http://fhir.openmrs.org/ext/address#address5",
										"valueString": "Bukasa"
									}
								]
							}
						],
						"use": "home",
						"state": "KCCA",
						"country": "Uganda"
					}
				],
				"active": true,
				"link": [
					{
						"target": {
							"reference": "Patient/c350f310-fd89-44de-ad75-bb7827ca1d5b",
							"type": "Patient",
							"display": "Tom James (OpenMRS ID: 10V6E3)"
						}
					}
				]
			},
			"request": {
				"method": "PUT",
				"url": "Person/c350f310-fd89-44de-ad75-bb7827ca1d5b"
			}
		},
		{
			"resource": {
				"resourceType": "EpisodeOfCare",
				"id": "ee2539ed-2e10-4ba5-a089-8d540b328112",
				"identifier": [
					{
						"use": "usual",
						"system": "https://ugandaemr/",
						"value": "ee2539ed-2e10-4ba5-a089-8d540b328112"
					}
				],
				"status": "active",
				"type": [
					{
						"coding": [
							{
								"code": "160541AAAAAAAAAAAAAAAAAAAAAAAAAAAAAA",
								"display": "Tuberculosis treatment program"
							}
						]
					}
				],
				"patient": {
					"reference": "Patient/c350f310-fd89-44de-ad75-bb7827ca1d5b",
					"type": "Patient",
					"display": "Tom James (OpenMRS ID: 10V6E3)"
				},
				"managingOrganization": {
					"reference": "Organization/wepUthscBkh",
					"type": "Organization",
					"identifier": {
						"use": "official",
						"system": "https://hmis.health.go.ug/",
						"value": "wepUthscBkh"
					},
					"display": "Demo Health Center"
				},
				"period": {
					"start": "2022-04-01T00:00:00+03:00"
				}
			},
			"request": {
				"method": "POST"
			}
		},
		{
			"resource": {
				"partOf": {
					"reference": "Encounter/e50e4c31-08a6-407b-b3cc-417bc92885fe",
					"type": "Encounter"
				},
				"period": {
					"start": "2022-04-01T00:00:00+03:00"
				},
				"subject": {
					"reference": "Patient/c350f310-fd89-44de-ad75-bb7827ca1d5b",
					"display": "Tom James (OpenMRS ID: 10V6E3)",
					"type": "Patient"
				},
				"type": [
					{
						"coding": [
							{
								"system": "http://fhir.openmrs.org/code-system/encounter-type",
								"code": "455bad1f-5e97-4ee9-9558-ff1df8808732",
								"display": "TB Encounter (Followup)"
							}
						]
					}
				],
				"participant": [
					{
						"individual": {
							"reference": "Practitioner/2455a599-a800-11e6-9919-80c16ef29100",
							"identifier": {
								"value": "2455"
							},
							"display": "Emerson Kaseem (Identifier: 2455)",
							"type": "Practitioner"
						}
					}
				],
				"contained": [
					{
						"agent": [
							{
								"role": [
									{
										"coding": [
											{
												"system": "http://terminology.hl7.org/CodeSystemv3-ParticipationType",
												"code": "AUT",
												"display": "author"
											}
										]
									}
								],
								"type": {
									"coding": [
										{
											"system": "http://terminology.hl7.org/CodeSystemprovenance-participant-type",
											"code": "author",
											"display": "Author"
										}
									]
								},
								"who": {
									"reference": "Practitioner/1c3db49d-440a-11e6-a65c-00e04c680037",
									"display": "Emerson Kaseem",
									"type": "Practitioner"
								}
							}
						],
						"activity": {
							"coding": [
								{
									"system": "http://terminology.hl7.org/CodeSystemv3-DataOperation",
									"code": "CREATE",
									"display": "create"
								}
							]
						},
						"id": "7dd0288f-5c50-48eb-84c8-a917fb804f1e",
						"recorded": "2022-06-07T13:24:22.000+03:00",
						"resourceType": "Provenance"
					}
				],
				"meta": {
					"tag": [
						{
							"system": "http://fhir.openmrs.org/ext/encounter-tag",
							"code": "encounter",
							"display": "Encounter"
						}
					]
				},
				"serviceProvider": {
					"reference": "Organization/wepUthscBkh",
					"identifier": {
						"system": "https://hmis.health.go.ug/",
						"use": "official",
						"value": "wepUthscBkh"
					},
					"display": "Demo Health Center",
					"type": "Organization"
				},
				"location": [
					{
						"location": {
							"reference": "Location/8ab22b55-9a17-4121-bf08-6134a9a2439f",
							"display": "TB Clinic",
							"type": "Location"
						}
					}
				],
				"id": "41ff8811-23ed-43f9-b302-f90485d915e4",
				"episodeOfCare": {
					"reference": "EpisodeOfCare/ee2539ed-2e10-4ba5-a089-8d540b328112"
				},
				"class": {
					"system": "http://terminology.hl7.org/CodeSystem/v3-ActCode",
					"code": "AMB"
				},
				"resourceType": "Encounter",
				"status": "unknown"
			},
			"request": {
				"method": "POST"
			}
		},
		{
			"resource": {
				"partOf": {
					"reference": "Encounter/e50e4c31-08a6-407b-b3cc-417bc92885fe",
					"type": "Encounter"
				},
				"contained": [
					{
						"agent": [
							{
								"role": [
									{
										"coding": [
											{
												"system": "http://terminology.hl7.org/CodeSystemv3-ParticipationType",
												"code": "AUT",
												"display": "author"
											}
										]
									}
								],
								"type": {
									"coding": [
										{
											"system": "http://terminology.hl7.org/CodeSystemprovenance-participant-type",
											"code": "author",
											"display": "Author"
										}
									]
								},
								"who": {
									"reference": "Practitioner/1c3db49d-440a-11e6-a65c-00e04c680037",
									"display": "Emerson Kaseem",
									"type": "Practitioner"
								}
							}
						],
						"activity": {
							"coding": [
								{
									"system": "http://terminology.hl7.org/CodeSystemv3-DataOperation",
									"code": "CREATE",
									"display": "create"
								}
							]
						},
						"id": "3ceb5dc3-efca-40b3-b116-f8c0d002a91a",
						"recorded": "2022-06-07T13:13:25.000+03:00",
						"resourceType": "Provenance"
					}
				],
				"period": {
					"start": "2022-04-01T00:00:00+03:00"
				},
				"meta": {
					"tag": [
						{
							"system": "http://fhir.openmrs.org/ext/encounter-tag",
							"code": "encounter",
							"display": "Encounter"
						}
					]
				},
				"subject": {
					"reference": "Patient/c350f310-fd89-44de-ad75-bb7827ca1d5b",
					"display": "Tom James (OpenMRS ID: 10V6E3)",
					"type": "Patient"
				},
				"serviceProvider": {
					"reference": "Organization/wepUthscBkh",
					"identifier": {
						"system": "https://hmis.health.go.ug/",
						"use": "official",
						"value": "wepUthscBkh"
					},
					"display": "Demo Health Center",
					"type": "Organization"
				},
				"id": "7067e0f7-3309-41b4-8e89-fb3e77a7e537",
				"episodeOfCare": {
					"reference": "EpisodeOfCare/ee2539ed-2e10-4ba5-a089-8d540b328112"
				},
				"type": [
					{
						"coding": [
							{
								"system": "http://fhir.openmrs.org/code-system/encounter-type",
								"code": "334bf97e-28e2-4a27-8727-a5ce31c7cd66",
								"display": "TB Summary (Enrollment)"
							}
						]
					}
				],
				"class": {
					"system": "http://terminology.hl7.org/CodeSystem/v3-ActCode",
					"code": "AMB"
				},
				"resourceType": "Encounter",
				"status": "unknown"
			},
			"request": {
				"method": "POST"
			}
		},
		{
			"request": {
				"method": "POST"
			},
			"resource": {
				"contained": [
					{
						"agent": [
							{
								"role": [
									{
										"coding": [
											{
												"system": "http://terminology.hl7.org/CodeSystemv3-ParticipationType",
												"code": "AUT",
												"display": "author"
											}
										]
									}
								],
								"type": {
									"coding": [
										{
											"system": "http://terminology.hl7.org/CodeSystemprovenance-participant-type",
											"code": "author",
											"display": "Author"
										}
									]
								},
								"who": {
									"reference": "Practitioner/1c3db49d-440a-11e6-a65c-00e04c680037",
									"display": "Emerson Kaseem",
									"type": "Practitioner"
								}
							}
						],
						"activity": {
							"coding": [
								{
									"system": "http://terminology.hl7.org/CodeSystemv3-DataOperation",
									"code": "CREATE",
									"display": "create"
								}
							]
						},
						"id": "cb6dd69c-3e41-4010-a592-f133879fe1c5",
						"recorded": "2022-06-07T13:13:25.000+03:00",
						"resourceType": "Provenance"
					}
				],
				"code": {
					"coding": [
						{
							"code": "d2f31713-aada-4d0d-9340-014b2371bdd8",
							"display": "Examination Date"
						},
						{
							"system": "UgandaEMR",
							"code": "164431",
							"display": "Examination Date"
						}
					]
				},
				"effectiveDateTime": "2022-04-01T00:00:00+03:00",
				"subject": {
					"reference": "Patient/c350f310-fd89-44de-ad75-bb7827ca1d5b",
					"display": "Tom James (OpenMRS ID: 10V6E3)",
					"type": "Patient"
				},
				"valueDateTime": "2022-04-01T00:00:00+03:00",
				"id": "0d68a870-1d7c-4eac-a919-c9c7c0f90672",
				"encounter": {
					"reference": "Encounter/7067e0f7-3309-41b4-8e89-fb3e77a7e537",
					"type": "Encounter"
				},
				"category": [
					{
						"coding": [
							{
								"system": "http://terminology.hl7.org/CodeSystem/observation-category",
								"code": "exam",
								"display": "Exam"
							}
						]
					}
				],
				"issued": "2022-06-07T13:13:25.000+03:00",
				"resourceType": "Observation",
				"status": "final"
			}
		},
		{
			"request": {
				"method": "POST"
			},
			"resource": {
				"contained": [
					{
						"agent": [
							{
								"role": [
									{
										"coding": [
											{
												"system": "http://terminology.hl7.org/CodeSystemv3-ParticipationType",
												"code": "AUT",
												"display": "author"
											}
										]
									}
								],
								"type": {
									"coding": [
										{
											"system": "http://terminology.hl7.org/CodeSystemprovenance-participant-type",
											"code": "author",
											"display": "Author"
										}
									]
								},
								"who": {
									"reference": "Practitioner/1c3db49d-440a-11e6-a65c-00e04c680037",
									"display": "Emerson Kaseem",
									"type": "Practitioner"
								}
							}
						],
						"activity": {
							"coding": [
								{
									"system": "http://terminology.hl7.org/CodeSystemv3-DataOperation",
									"code": "CREATE",
									"display": "create"
								}
							]
						},
						"id": "2c4c9c97-d3af-47e5-bf30-64368e188673",
						"recorded": "2022-06-07T13:13:25.000+03:00",
						"resourceType": "Provenance"
					}
				],
				"code": {
					"coding": [
						{
							"code": "23e28311-3c17-4137-8eee-69860621b80b",
							"display": "TREATMENT SUPPORTER NAME"
						},
						{
							"system": "UgandaEMR",
							"code": "99142",
							"display": "TREATMENT SUPPORTER NAME"
						}
					]
				},
				"valueString": "Charlse",
				"effectiveDateTime": "2022-04-01T00:00:00+03:00",
				"subject": {
					"reference": "Patient/c350f310-fd89-44de-ad75-bb7827ca1d5b",
					"display": "Tom James (OpenMRS ID: 10V6E3)",
					"type": "Patient"
				},
				"id": "183d372f-b5bb-436d-a478-d36b2bc7a760",
				"encounter": {
					"reference": "Encounter/7067e0f7-3309-41b4-8e89-fb3e77a7e537",
					"type": "Encounter"
				},
				"issued": "2022-06-07T13:13:25.000+03:00",
				"resourceType": "Observation",
				"status": "final"
			}
		},
		{
			"request": {
				"method": "POST"
			},
			"resource": {
				"valueCodeableConcept": {
					"coding": [
						{
							"code": "9b0ca481-9546-4846-a963-a5d57b2aa3f1",
							"display": "Random Blood sugar"
						},
						{
							"system": "UgandaEMR",
							"code": "165849",
							"display": "Random Blood sugar"
						}
					]
				},
				"contained": [
					{
						"agent": [
							{
								"role": [
									{
										"coding": [
											{
												"system": "http://terminology.hl7.org/CodeSystemv3-ParticipationType",
												"code": "AUT",
												"display": "author"
											}
										]
									}
								],
								"type": {
									"coding": [
										{
											"system": "http://terminology.hl7.org/CodeSystemprovenance-participant-type",
											"code": "author",
											"display": "Author"
										}
									]
								},
								"who": {
									"reference": "Practitioner/1c3db49d-440a-11e6-a65c-00e04c680037",
									"display": "Emerson Kaseem",
									"type": "Practitioner"
								}
							}
						],
						"activity": {
							"coding": [
								{
									"system": "http://terminology.hl7.org/CodeSystemv3-DataOperation",
									"code": "CREATE",
									"display": "create"
								}
							]
						},
						"id": "b0b621ee-168f-4d82-8707-4b75e7ed9019",
						"recorded": "2022-06-07T13:13:25.000+03:00",
						"resourceType": "Provenance"
					}
				],
				"code": {
					"coding": [
						{
							"code": "c92173bf-98bc-4770-a267-065b6e9730ac",
							"display": "Diabetes Test Done"
						},
						{
							"system": "UgandaEMR",
							"code": "165851",
							"display": "Diabetes Test Done"
						}
					]
				},
				"effectiveDateTime": "2022-04-01T00:00:00+03:00",
				"subject": {
					"reference": "Patient/c350f310-fd89-44de-ad75-bb7827ca1d5b",
					"display": "Tom James (OpenMRS ID: 10V6E3)",
					"type": "Patient"
				},
				"id": "1b46165d-f486-416c-8f5a-a2dc40b5f4cc",
				"encounter": {
					"reference": "Encounter/7067e0f7-3309-41b4-8e89-fb3e77a7e537",
					"type": "Encounter"
				},
				"category": [
					{
						"coding": [
							{
								"system": "http://terminology.hl7.org/CodeSystem/observation-category",
								"code": "exam",
								"display": "Exam"
							}
						]
					}
				],
				"issued": "2022-06-07T13:13:25.000+03:00",
				"resourceType": "Observation",
				"status": "final"
			}
		},
		{
			"request": {
				"method": "POST"
			},
			"resource": {
				"contained": [
					{
						"agent": [
							{
								"role": [
									{
										"coding": [
											{
												"system": "http://terminology.hl7.org/CodeSystemv3-ParticipationType",
												"code": "AUT",
												"display": "author"
											}
										]
									}
								],
								"type": {
									"coding": [
										{
											"system": "http://terminology.hl7.org/CodeSystemprovenance-participant-type",
											"code": "author",
											"display": "Author"
										}
									]
								},
								"who": {
									"reference": "Practitioner/1c3db49d-440a-11e6-a65c-00e04c680037",
									"display": "Emerson Kaseem",
									"type": "Practitioner"
								}
							}
						],
						"activity": {
							"coding": [
								{
									"system": "http://terminology.hl7.org/CodeSystemv3-DataOperation",
									"code": "CREATE",
									"display": "create"
								}
							]
						},
						"id": "6a98bc94-e20d-4112-81e0-7da257597527",
						"recorded": "2022-06-07T13:24:22.000+03:00",
						"resourceType": "Provenance"
					}
				],
				"code": {
					"coding": [
						{
							"code": "0f998893-ab24-4ee4-922a-f197ac5fd6e6",
							"display": "Lab Number"
						},
						{
							"system": "UgandaEMR",
							"code": "165845",
							"display": "Lab Number"
						}
					]
				},
				"valueString": "776553",
				"effectiveDateTime": "2022-04-01T00:00:00+03:00",
				"subject": {
					"reference": "Patient/c350f310-fd89-44de-ad75-bb7827ca1d5b",
					"display": "Tom James (OpenMRS ID: 10V6E3)",
					"type": "Patient"
				},
				"id": "22e1d3b6-7009-4faf-9500-2ecd5915212a",
				"encounter": {
					"reference": "Encounter/41ff8811-23ed-43f9-b302-f90485d915e4",
					"type": "Encounter"
				},
				"issued": "2022-06-07T13:24:22.000+03:00",
				"resourceType": "Observation",
				"status": "final"
			}
		},
		{
			"request": {
				"method": "POST"
			},
			"resource": {
				"valueCodeableConcept": {
					"coding": [
						{
							"code": "1890c9d5-2df6-45ed-bc37-26b3c2e4f28f",
							"display": "Known Diabetes Mellitus"
						},
						{
							"system": "UgandaEMR",
							"code": "165848",
							"display": "Known Diabetes Mellitus"
						}
					]
				},
				"contained": [
					{
						"agent": [
							{
								"role": [
									{
										"coding": [
											{
												"system": "http://terminology.hl7.org/CodeSystemv3-ParticipationType",
												"code": "AUT",
												"display": "author"
											}
										]
									}
								],
								"type": {
									"coding": [
										{
											"system": "http://terminology.hl7.org/CodeSystemprovenance-participant-type",
											"code": "author",
											"display": "Author"
										}
									]
								},
								"who": {
									"reference": "Practitioner/1c3db49d-440a-11e6-a65c-00e04c680037",
									"display": "Emerson Kaseem",
									"type": "Practitioner"
								}
							}
						],
						"activity": {
							"coding": [
								{
									"system": "http://terminology.hl7.org/CodeSystemv3-DataOperation",
									"code": "CREATE",
									"display": "create"
								}
							]
						},
						"id": "bffc53b9-322c-4ec3-823d-8b64f973a6a9",
						"recorded": "2022-06-07T13:13:25.000+03:00",
						"resourceType": "Provenance"
					}
				],
				"code": {
					"coding": [
						{
							"code": "93d5f1ea-df3a-470d-b60f-dbe84d717574",
							"display": "Diabetes Test Results"
						},
						{
							"system": "UgandaEMR",
							"code": "165852",
							"display": "Diabetes Test Results"
						}
					]
				},
				"effectiveDateTime": "2022-04-01T00:00:00+03:00",
				"subject": {
					"reference": "Patient/c350f310-fd89-44de-ad75-bb7827ca1d5b",
					"display": "Tom James (OpenMRS ID: 10V6E3)",
					"type": "Patient"
				},
				"id": "22f46ab0-98e5-40dd-b9f9-cc628ea2d21c",
				"encounter": {
					"reference": "Encounter/7067e0f7-3309-41b4-8e89-fb3e77a7e537",
					"type": "Encounter"
				},
				"category": [
					{
						"coding": [
							{
								"system": "http://terminology.hl7.org/CodeSystem/observation-category",
								"code": "exam",
								"display": "Exam"
							}
						]
					}
				],
				"issued": "2022-06-07T13:13:25.000+03:00",
				"resourceType": "Observation",
				"status": "final"
			}
		},
		{
			"request": {
				"method": "POST"
			},
			"resource": {
				"contained": [
					{
						"agent": [
							{
								"role": [
									{
										"coding": [
											{
												"system": "http://terminology.hl7.org/CodeSystemv3-ParticipationType",
												"code": "AUT",
												"display": "author"
											}
										]
									}
								],
								"type": {
									"coding": [
										{
											"system": "http://terminology.hl7.org/CodeSystemprovenance-participant-type",
											"code": "author",
											"display": "Author"
										}
									]
								},
								"who": {
									"reference": "Practitioner/1c3db49d-440a-11e6-a65c-00e04c680037",
									"display": "Emerson Kaseem",
									"type": "Practitioner"
								}
							}
						],
						"activity": {
							"coding": [
								{
									"system": "http://terminology.hl7.org/CodeSystemv3-DataOperation",
									"code": "CREATE",
									"display": "create"
								}
							]
						},
						"id": "1c0ae02a-eaf6-418e-b37b-26588afbd59d",
						"recorded": "2022-06-07T13:13:25.000+03:00",
						"resourceType": "Provenance"
					}
				],
				"code": {
					"coding": [
						{
							"code": "162729AAAAAAAAAAAAAAAAAAAAAAAAAAAAAA",
							"display": "Next of kin name (text)"
						},
						{
							"system": "UgandaEMR",
							"code": "162729",
							"display": "Next of kin name (text)"
						}
					]
				},
				"valueString": "Tom Jeffy",
				"effectiveDateTime": "2022-04-01T00:00:00+03:00",
				"subject": {
					"reference": "Patient/c350f310-fd89-44de-ad75-bb7827ca1d5b",
					"display": "Tom James (OpenMRS ID: 10V6E3)",
					"type": "Patient"
				},
				"id": "2773d696-5e86-4b2e-8fd4-08f209472ce6",
				"encounter": {
					"reference": "Encounter/7067e0f7-3309-41b4-8e89-fb3e77a7e537",
					"type": "Encounter"
				},
				"issued": "2022-06-07T13:13:25.000+03:00",
				"resourceType": "Observation",
				"status": "final"
			}
		},
		{
			"request": {
				"method": "POST"
			},
			"resource": {
				"valueCodeableConcept": {
					"coding": [
						{
							"code": "dc9897e7-30ab-102d-86b0-7a5022ba4115",
							"display": "RIFAMPICIN ISONIAZID PYRAZINAMIDE AND ETHAMBUTOL"
						},
						{
							"system": "UgandaEMR",
							"code": "1131",
							"display": "RIFAMPICIN ISONIAZID PYRAZINAMIDE AND ETHAMBUTOL"
						}
					]
				},
				"contained": [
					{
						"agent": [
							{
								"role": [
									{
										"coding": [
											{
												"system": "http://terminology.hl7.org/CodeSystemv3-ParticipationType",
												"code": "AUT",
												"display": "author"
											}
										]
									}
								],
								"type": {
									"coding": [
										{
											"system": "http://terminology.hl7.org/CodeSystemprovenance-participant-type",
											"code": "author",
											"display": "Author"
										}
									]
								},
								"who": {
									"reference": "Practitioner/1c3db49d-440a-11e6-a65c-00e04c680037",
									"display": "Emerson Kaseem",
									"type": "Practitioner"
								}
							}
						],
						"activity": {
							"coding": [
								{
									"system": "http://terminology.hl7.org/CodeSystemv3-DataOperation",
									"code": "CREATE",
									"display": "create"
								}
							]
						},
						"id": "a1ae8266-a24c-4c5e-b027-1ed7fe6a8ec8",
						"recorded": "2022-06-07T13:24:22.000+03:00",
						"resourceType": "Provenance"
					}
				],
				"code": {
					"coding": [
						{
							"code": "1282AAAAAAAAAAAAAAAAAAAAAAAAAAAAAAAA",
							"display": "Medication orders"
						},
						{
							"system": "UgandaEMR",
							"code": "1282",
							"display": "Medication orders"
						}
					]
				},
				"effectiveDateTime": "2022-04-01T00:00:00+03:00",
				"subject": {
					"reference": "Patient/c350f310-fd89-44de-ad75-bb7827ca1d5b",
					"display": "Tom James (OpenMRS ID: 10V6E3)",
					"type": "Patient"
				},
				"id": "30d29aed-b1bd-4f04-8140-469c38023a4e",
				"encounter": {
					"reference": "Encounter/41ff8811-23ed-43f9-b302-f90485d915e4",
					"type": "Encounter"
				},
				"issued": "2022-06-07T13:24:22.000+03:00",
				"resourceType": "Observation",
				"status": "final"
			}
		},
		{
			"request": {
				"method": "POST"
			},
			"resource": {
				"contained": [
					{
						"agent": [
							{
								"role": [
									{
										"coding": [
											{
												"system": "http://terminology.hl7.org/CodeSystemv3-ParticipationType",
												"code": "AUT",
												"display": "author"
											}
										]
									}
								],
								"type": {
									"coding": [
										{
											"system": "http://terminology.hl7.org/CodeSystemprovenance-participant-type",
											"code": "author",
											"display": "Author"
										}
									]
								},
								"who": {
									"reference": "Practitioner/1c3db49d-440a-11e6-a65c-00e04c680037",
									"display": "Emerson Kaseem",
									"type": "Practitioner"
								}
							}
						],
						"activity": {
							"coding": [
								{
									"system": "http://terminology.hl7.org/CodeSystemv3-DataOperation",
									"code": "CREATE",
									"display": "create"
								}
							]
						},
						"id": "4a8f4f53-a0f8-4df2-a148-66eb6a7c0b92",
						"recorded": "2022-06-07T13:24:22.000+03:00",
						"resourceType": "Provenance"
					}
				],
				"code": {
					"coding": [
						{
							"code": "1444AAAAAAAAAAAAAAAAAAAAAAAAAAAAAAAA",
							"display": "Medication strength"
						},
						{
							"system": "UgandaEMR",
							"code": "1444",
							"display": "Medication strength"
						}
					]
				},
				"valueString": "10mg",
				"effectiveDateTime": "2022-04-01T00:00:00+03:00",
				"subject": {
					"reference": "Patient/c350f310-fd89-44de-ad75-bb7827ca1d5b",
					"display": "Tom James (OpenMRS ID: 10V6E3)",
					"type": "Patient"
				},
				"id": "39d2e138-2226-44da-8f28-742eb20af2eb",
				"encounter": {
					"reference": "Encounter/41ff8811-23ed-43f9-b302-f90485d915e4",
					"type": "Encounter"
				},
				"issued": "2022-06-07T13:24:22.000+03:00",
				"resourceType": "Observation",
				"status": "final"
			}
		},
		{
			"resourceType": "Observation",
			"id": "3cddf9ba-71db-42c7-a2b8-1633e1be5092",
			"contained": [
				{
					"resourceType": "Provenance",
					"id": "6fd73880-b385-4a08-b3d1-299d6e5f53fd",
					"recorded": "2022-06-07T13:24:22.000+03:00",
					"activity": {
						"coding": [
							{
								"system": "http://terminology.hl7.org/CodeSystemv3-DataOperation",
								"code": "CREATE",
								"display": "create"
							}
						]
					},
					"agent": [
						{
							"type": {
								"coding": [
									{
										"system": "http://terminology.hl7.org/CodeSystemprovenance-participant-type",
										"code": "author",
										"display": "Author"
									}
								]
							},
							"role": [
								{
									"coding": [
										{
											"system": "http://terminology.hl7.org/CodeSystemv3-ParticipationType",
											"code": "AUT",
											"display": "author"
										}
									]
								}
							],
							"who": {
								"reference": "Practitioner/1c3db49d-440a-11e6-a65c-00e04c680037",
								"type": "Practitioner",
								"display": "Emerson Kaseem"
							}
						}
					]
				}
			],
			"status": "final",
			"code": {
				"coding": [
					{
						"code": "a202ecd2-3ae8-4b67-8c4f-779a6ce9d7ff",
						"display": "Tuberculosis Medication Set"
					}
				]
			},
			"subject": {
				"reference": "Patient/c350f310-fd89-44de-ad75-bb7827ca1d5b",
				"type": "Patient",
				"display": "Tom James (OpenMRS ID: 10V6E3)"
			},
			"encounter": {
				"reference": "Encounter/41ff8811-23ed-43f9-b302-f90485d915e4",
				"type": "Encounter"
			},
			"effectiveDateTime": "2022-04-01T00:00:00+03:00",
			"issued": "2022-06-07T13:24:22.000+03:00",
			"hasMember": [
				{
					"reference": "Observation/39d2e138-2226-44da-8f28-742eb20af2eb",
					"type": "Observation"
				},
				{
					"reference": "Observation/30d29aed-b1bd-4f04-8140-469c38023a4e",
					"type": "Observation"
				},
				{
					"reference": "Observation/cee98b1a-30ae-499f-b835-553a0259d50f",
					"type": "Observation"
				},
				{
					"reference": "Observation/8ce17fd5-1392-4209-87bf-c2473ad36a3c",
					"type": "Observation"
				}
			]
		},
		{
			"request": {
				"method": "POST"
			},
			"resource": {
				"contained": [
					{
						"agent": [
							{
								"role": [
									{
										"coding": [
											{
												"system": "http://terminology.hl7.org/CodeSystemv3-ParticipationType",
												"code": "AUT",
												"display": "author"
											}
										]
									}
								],
								"type": {
									"coding": [
										{
											"system": "http://terminology.hl7.org/CodeSystemprovenance-participant-type",
											"code": "author",
											"display": "Author"
										}
									]
								},
								"who": {
									"reference": "Practitioner/1c3db49d-440a-11e6-a65c-00e04c680037",
									"display": "Emerson Kaseem",
									"type": "Practitioner"
								}
							}
						],
						"activity": {
							"coding": [
								{
									"system": "http://terminology.hl7.org/CodeSystemv3-DataOperation",
									"code": "CREATE",
									"display": "create"
								}
							]
						},
						"id": "08adc80c-f6b0-47bd-8b4b-793bd21be021",
						"recorded": "2022-06-07T13:24:22.000+03:00",
						"resourceType": "Provenance"
					}
				],
				"referenceRange": [
					{
						"high": {
							"value": 250
						},
						"low": {
							"value": 0
						},
						"type": {
							"coding": [
								{
									"system": "http://fhir.openmrs.org/ext/obs/reference-range",
									"code": "absolute"
								}
							]
						}
					}
				],
				"code": {
					"coding": [
						{
							"code": "5089AAAAAAAAAAAAAAAAAAAAAAAAAAAAAAAA",
							"display": "Weight (kg)"
						},
						{
							"system": "http://loinc.org",
							"code": "3141-9",
							"display": "Weight (kg)"
						},
						{
							"system": "http://snomed.info/sct",
							"code": "27113001",
							"display": "Weight (kg)"
						},
						{
							"system": "https://openconceptlab.org/orgs/CIEL/sources/CIEL",
							"code": "5089",
							"display": "Weight (kg)"
						},
						{
							"system": "UgandaEMR",
							"code": "5089",
							"display": "Weight (kg)"
						},
						{
							"system": "PIH Malawi",
							"code": "5089",
							"display": "null"
						},
						{
							"system": "AMPATH",
							"code": "5089",
							"display": "null"
						},
						{
							"system": "LOINC",
							"code": "3141-9",
							"display": "null"
						},
						{
							"system": "SNOMED CT",
							"code": "27113001",
							"display": "null"
						},
						{
							"system": "PIH",
							"code": "5089",
							"display": "null"
						},
						{
							"system": "org.openmrs.module.mdrtb",
							"code": "WEIGHT",
							"display": "null"
						},
						{
							"system": "CIEL",
							"code": "5089",
							"display": "null"
						}
					]
				},
				"effectiveDateTime": "2022-04-01T00:00:00+03:00",
				"subject": {
					"reference": "Patient/c350f310-fd89-44de-ad75-bb7827ca1d5b",
					"display": "Tom James (OpenMRS ID: 10V6E3)",
					"type": "Patient"
				},
				"id": "47b45249-385a-4e07-b773-c65a6a65d002",
				"encounter": {
					"reference": "Encounter/41ff8811-23ed-43f9-b302-f90485d915e4",
					"type": "Encounter"
				},
				"category": [
					{
						"coding": [
							{
								"system": "http://terminology.hl7.org/CodeSystem/observation-category",
								"code": "exam",
								"display": "Exam"
							}
						]
					}
				],
				"issued": "2022-06-07T13:24:22.000+03:00",
				"resourceType": "Observation",
				"status": "final",
				"valueQuantity": {
					"unit": "kg",
					"value": 72
				}
			}
		},
		{
			"request": {
				"method": "POST"
			},
			"resource": {
				"contained": [
					{
						"agent": [
							{
								"role": [
									{
										"coding": [
											{
												"system": "http://terminology.hl7.org/CodeSystemv3-ParticipationType",
												"code": "AUT",
												"display": "author"
											}
										]
									}
								],
								"type": {
									"coding": [
										{
											"system": "http://terminology.hl7.org/CodeSystemprovenance-participant-type",
											"code": "author",
											"display": "Author"
										}
									]
								},
								"who": {
									"reference": "Practitioner/1c3db49d-440a-11e6-a65c-00e04c680037",
									"display": "Emerson Kaseem",
									"type": "Practitioner"
								}
							}
						],
						"activity": {
							"coding": [
								{
									"system": "http://terminology.hl7.org/CodeSystemv3-DataOperation",
									"code": "CREATE",
									"display": "create"
								}
							]
						},
						"id": "75ba6034-7a8c-4b16-84e8-6687d55271dc",
						"recorded": "2022-06-07T13:24:22.000+03:00",
						"resourceType": "Provenance"
					}
				],
				"code": {
					"coding": [
						{
							"code": "d2f31713-aada-4d0d-9340-014b2371bdd8",
							"display": "Examination Date"
						},
						{
							"system": "UgandaEMR",
							"code": "164431",
							"display": "Examination Date"
						}
					]
				},
				"effectiveDateTime": "2022-04-01T00:00:00+03:00",
				"subject": {
					"reference": "Patient/c350f310-fd89-44de-ad75-bb7827ca1d5b",
					"display": "Tom James (OpenMRS ID: 10V6E3)",
					"type": "Patient"
				},
				"valueDateTime": "2022-04-01T00:00:00+03:00",
				"id": "605eb644-0230-4e43-8642-2a6822aed811",
				"encounter": {
					"reference": "Encounter/41ff8811-23ed-43f9-b302-f90485d915e4",
					"type": "Encounter"
				},
				"category": [
					{
						"coding": [
							{
								"system": "http://terminology.hl7.org/CodeSystem/observation-category",
								"code": "exam",
								"display": "Exam"
							}
						]
					}
				],
				"issued": "2022-06-07T13:24:22.000+03:00",
				"resourceType": "Observation",
				"status": "final"
			}
		},
		{
			"request": {
				"method": "POST"
			},
			"resource": {
				"contained": [
					{
						"agent": [
							{
								"role": [
									{
										"coding": [
											{
												"system": "http://terminology.hl7.org/CodeSystemv3-ParticipationType",
												"code": "AUT",
												"display": "author"
											}
										]
									}
								],
								"type": {
									"coding": [
										{
											"system": "http://terminology.hl7.org/CodeSystemprovenance-participant-type",
											"code": "author",
											"display": "Author"
										}
									]
								},
								"who": {
									"reference": "Practitioner/1c3db49d-440a-11e6-a65c-00e04c680037",
									"display": "Emerson Kaseem",
									"type": "Practitioner"
								}
							}
						],
						"activity": {
							"coding": [
								{
									"system": "http://terminology.hl7.org/CodeSystemv3-DataOperation",
									"code": "CREATE",
									"display": "create"
								}
							]
						},
						"id": "e81918b0-b2e8-41f9-97d4-a100297b7771",
						"recorded": "2022-06-07T13:24:22.000+03:00",
						"resourceType": "Provenance"
					}
				],
				"code": {
					"coding": [
						{
							"code": "1343AAAAAAAAAAAAAAAAAAAAAAAAAAAAAAAA",
							"display": "MID-UPPER ARM CIRCUMFERENCE"
						},
						{
							"system": "http://snomed.info/sct",
							"code": "284473002",
							"display": "MID-UPPER ARM CIRCUMFERENCE"
						},
						{
							"system": "https://openconceptlab.org/orgs/CIEL/sources/CIEL",
							"code": "1343",
							"display": "MID-UPPER ARM CIRCUMFERENCE"
						},
						{
							"system": "UgandaEMR",
							"code": "1343",
							"display": "MID-UPPER ARM CIRCUMFERENCE"
						},
						{
							"system": "SNOMED CT",
							"code": "284473002",
							"display": "null"
						},
						{
							"system": "AMPATH",
							"code": "1343",
							"display": "null"
						},
						{
							"system": "PIH",
							"code": "1290",
							"display": "null"
						},
						{
							"system": "CIEL",
							"code": "1343",
							"display": "null"
						}
					]
				},
				"effectiveDateTime": "2022-04-01T00:00:00+03:00",
				"subject": {
					"reference": "Patient/c350f310-fd89-44de-ad75-bb7827ca1d5b",
					"display": "Tom James (OpenMRS ID: 10V6E3)",
					"type": "Patient"
				},
				"id": "6bad6cd1-4a55-4840-9537-626b2d716807",
				"encounter": {
					"reference": "Encounter/41ff8811-23ed-43f9-b302-f90485d915e4",
					"type": "Encounter"
				},
				"category": [
					{
						"coding": [
							{
								"system": "http://terminology.hl7.org/CodeSystem/observation-category",
								"code": "exam",
								"display": "Exam"
							}
						]
					}
				],
				"issued": "2022-06-07T13:24:22.000+03:00",
				"resourceType": "Observation",
				"status": "final",
				"valueQuantity": {
					"unit": "cm",
					"value": 22
				}
			}
		},
		{
			"request": {
				"method": "POST"
			},
			"resource": {
				"valueCodeableConcept": {
					"coding": [
						{
							"code": "162204AAAAAAAAAAAAAAAAAAAAAAAAAAAAAA",
							"display": "Mycobacterium tuberculosis detected without rifampin resistance"
						},
						{
							"system": "UgandaEMR",
							"code": "162204",
							"display": "Mycobacterium tuberculosis detected without rifampin resistance"
						}
					]
				},
				"contained": [
					{
						"agent": [
							{
								"role": [
									{
										"coding": [
											{
												"system": "http://terminology.hl7.org/CodeSystemv3-ParticipationType",
												"code": "AUT",
												"display": "author"
											}
										]
									}
								],
								"type": {
									"coding": [
										{
											"system": "http://terminology.hl7.org/CodeSystemprovenance-participant-type",
											"code": "author",
											"display": "Author"
										}
									]
								},
								"who": {
									"reference": "Practitioner/1c3db49d-440a-11e6-a65c-00e04c680037",
									"display": "Emerson Kaseem",
									"type": "Practitioner"
								}
							}
						],
						"activity": {
							"coding": [
								{
									"system": "http://terminology.hl7.org/CodeSystemv3-DataOperation",
									"code": "CREATE",
									"display": "create"
								}
							]
						},
						"id": "78ded66d-0fde-42ad-9b4b-ae4fd7cae3ce",
						"recorded": "2022-06-07T13:24:22.000+03:00",
						"resourceType": "Provenance"
					}
				],
				"code": {
					"coding": [
						{
							"code": "162202AAAAAAAAAAAAAAAAAAAAAAAAAAAAAA",
							"display": "Tuberculosis polymerase chain reaction with rifampin resistance checking"
						},
						{
							"system": "UgandaEMR",
							"code": "162202",
							"display": "Tuberculosis polymerase chain reaction with rifampin resistance checking"
						}
					]
				},
				"effectiveDateTime": "2022-04-01T00:00:00+03:00",
				"subject": {
					"reference": "Patient/c350f310-fd89-44de-ad75-bb7827ca1d5b",
					"display": "Tom James (OpenMRS ID: 10V6E3)",
					"type": "Patient"
				},
				"id": "7f8a8020-9967-4183-bc6e-2bfada28d93d",
				"encounter": {
					"reference": "Encounter/41ff8811-23ed-43f9-b302-f90485d915e4",
					"type": "Encounter"
				},
				"category": [
					{
						"coding": [
							{
								"system": "http://terminology.hl7.org/CodeSystem/observation-category",
								"code": "laboratory",
								"display": "Laboratory"
							}
						]
					}
				],
				"issued": "2022-06-07T13:24:22.000+03:00",
				"resourceType": "Observation",
				"status": "final"
			}
		},
		{
			"request": {
				"method": "POST"
			},
			"resource": {
				"contained": [
					{
						"agent": [
							{
								"role": [
									{
										"coding": [
											{
												"system": "http://terminology.hl7.org/CodeSystemv3-ParticipationType",
												"code": "AUT",
												"display": "author"
											}
										]
									}
								],
								"type": {
									"coding": [
										{
											"system": "http://terminology.hl7.org/CodeSystemprovenance-participant-type",
											"code": "author",
											"display": "Author"
										}
									]
								},
								"who": {
									"reference": "Practitioner/1c3db49d-440a-11e6-a65c-00e04c680037",
									"display": "Emerson Kaseem",
									"type": "Practitioner"
								}
							}
						],
						"activity": {
							"coding": [
								{
									"system": "http://terminology.hl7.org/CodeSystemv3-DataOperation",
									"code": "CREATE",
									"display": "create"
								}
							]
						},
						"id": "b7e4f0e5-ef9a-466b-a5f4-b031655196e5",
						"recorded": "2022-06-07T13:13:25.000+03:00",
						"resourceType": "Provenance"
					}
				],
				"code": {
					"coding": [
						{
							"code": "7326297e-0ccd-4355-9b86-dde1c056e2c2",
							"display": "Date Started On TB First line"
						},
						{
							"system": "UgandaEMR",
							"code": "165838",
							"display": "Date Started On TB First line"
						}
					]
				},
				"effectiveDateTime": "2022-04-01T00:00:00+03:00",
				"subject": {
					"reference": "Patient/c350f310-fd89-44de-ad75-bb7827ca1d5b",
					"display": "Tom James (OpenMRS ID: 10V6E3)",
					"type": "Patient"
				},
				"valueDateTime": "2022-04-01T00:00:00+03:00",
				"id": "8c1110c1-a136-4339-8295-7659cb341517",
				"encounter": {
					"reference": "Encounter/7067e0f7-3309-41b4-8e89-fb3e77a7e537",
					"type": "Encounter"
				},
				"category": [
					{
						"coding": [
							{
								"system": "http://terminology.hl7.org/CodeSystem/observation-category",
								"code": "exam",
								"display": "Exam"
							}
						]
					}
				],
				"issued": "2022-06-07T13:13:25.000+03:00",
				"resourceType": "Observation",
				"status": "final"
			}
		},
		{
			"request": {
				"method": "POST"
			},
			"resource": {
				"contained": [
					{
						"agent": [
							{
								"role": [
									{
										"coding": [
											{
												"system": "http://terminology.hl7.org/CodeSystemv3-ParticipationType",
												"code": "AUT",
												"display": "author"
											}
										]
									}
								],
								"type": {
									"coding": [
										{
											"system": "http://terminology.hl7.org/CodeSystemprovenance-participant-type",
											"code": "author",
											"display": "Author"
										}
									]
								},
								"who": {
									"reference": "Practitioner/1c3db49d-440a-11e6-a65c-00e04c680037",
									"display": "Emerson Kaseem",
									"type": "Practitioner"
								}
							}
						],
						"activity": {
							"coding": [
								{
									"system": "http://terminology.hl7.org/CodeSystemv3-DataOperation",
									"code": "CREATE",
									"display": "create"
								}
							]
						},
						"id": "fd24de26-a95d-4893-8470-84337eee6a8d",
						"recorded": "2022-06-07T13:13:25.000+03:00",
						"resourceType": "Provenance"
					}
				],
				"code": {
					"coding": [
						{
							"code": "0f998893-ab24-4ee4-922a-f197ac5fd6e6",
							"display": "Lab Number"
						},
						{
							"system": "UgandaEMR",
							"code": "165845",
							"display": "Lab Number"
						}
					]
				},
				"valueString": "7764",
				"effectiveDateTime": "2022-04-01T00:00:00+03:00",
				"subject": {
					"reference": "Patient/c350f310-fd89-44de-ad75-bb7827ca1d5b",
					"display": "Tom James (OpenMRS ID: 10V6E3)",
					"type": "Patient"
				},
				"id": "8c9d06eb-1cef-4519-b968-0420357077c2",
				"encounter": {
					"reference": "Encounter/7067e0f7-3309-41b4-8e89-fb3e77a7e537",
					"type": "Encounter"
				},
				"issued": "2022-06-07T13:13:25.000+03:00",
				"resourceType": "Observation",
				"status": "final"
			}
		},
		{
			"request": {
				"method": "POST"
			},
			"resource": {
				"contained": [
					{
						"agent": [
							{
								"role": [
									{
										"coding": [
											{
												"system": "http://terminology.hl7.org/CodeSystemv3-ParticipationType",
												"code": "AUT",
												"display": "author"
											}
										]
									}
								],
								"type": {
									"coding": [
										{
											"system": "http://terminology.hl7.org/CodeSystemprovenance-participant-type",
											"code": "author",
											"display": "Author"
										}
									]
								},
								"who": {
									"reference": "Practitioner/1c3db49d-440a-11e6-a65c-00e04c680037",
									"display": "Emerson Kaseem",
									"type": "Practitioner"
								}
							}
						],
						"activity": {
							"coding": [
								{
									"system": "http://terminology.hl7.org/CodeSystemv3-DataOperation",
									"code": "CREATE",
									"display": "create"
								}
							]
						},
						"id": "c1f8a27d-f0c7-4f8b-b100-3b8bfec330a0",
						"recorded": "2022-06-07T13:24:22.000+03:00",
						"resourceType": "Provenance"
					}
				],
				"code": {
					"coding": [
						{
							"code": "160856AAAAAAAAAAAAAAAAAAAAAAAAAAAAAA",
							"display": "Quantity of medication prescribed per dose"
						},
						{
							"system": "UgandaEMR",
							"code": "160856",
							"display": "Quantity of medication prescribed per dose"
						}
					]
				},
				"effectiveDateTime": "2022-04-01T00:00:00+03:00",
				"subject": {
					"reference": "Patient/c350f310-fd89-44de-ad75-bb7827ca1d5b",
					"display": "Tom James (OpenMRS ID: 10V6E3)",
					"type": "Patient"
				},
				"id": "8ce17fd5-1392-4209-87bf-c2473ad36a3c",
				"encounter": {
					"reference": "Encounter/41ff8811-23ed-43f9-b302-f90485d915e4",
					"type": "Encounter"
				},
				"issued": "2022-06-07T13:24:22.000+03:00",
				"resourceType": "Observation",
				"status": "final",
				"valueQuantity": {
					"value": 30
				}
			}
		},
		{
			"request": {
				"method": "POST"
			},
			"resource": {
				"valueCodeableConcept": {
					"coding": [
						{
							"code": "f9cdc841-1901-407e-b3ca-65dd3762051d",
							"display": "Facility DOTS"
						},
						{
							"system": "UgandaEMR",
							"code": "165866",
							"display": "Facility DOTS"
						}
					]
				},
				"contained": [
					{
						"agent": [
							{
								"role": [
									{
										"coding": [
											{
												"system": "http://terminology.hl7.org/CodeSystemv3-ParticipationType",
												"code": "AUT",
												"display": "author"
											}
										]
									}
								],
								"type": {
									"coding": [
										{
											"system": "http://terminology.hl7.org/CodeSystemprovenance-participant-type",
											"code": "author",
											"display": "Author"
										}
									]
								},
								"who": {
									"reference": "Practitioner/1c3db49d-440a-11e6-a65c-00e04c680037",
									"display": "Emerson Kaseem",
									"type": "Practitioner"
								}
							}
						],
						"activity": {
							"coding": [
								{
									"system": "http://terminology.hl7.org/CodeSystemv3-DataOperation",
									"code": "CREATE",
									"display": "create"
								}
							]
						},
						"id": "935acdca-4fb1-4808-ad27-934fdf2a66d2",
						"recorded": "2022-06-07T13:24:22.000+03:00",
						"resourceType": "Provenance"
					}
				],
				"code": {
					"coding": [
						{
							"code": "9e4e93fc-dcc0-4d36-9738-c0a5a489baa1",
							"display": "TB Treatment Model"
						},
						{
							"system": "UgandaEMR",
							"code": "165869",
							"display": "TB Treatment Model"
						}
					]
				},
				"effectiveDateTime": "2022-04-01T00:00:00+03:00",
				"subject": {
					"reference": "Patient/c350f310-fd89-44de-ad75-bb7827ca1d5b",
					"display": "Tom James (OpenMRS ID: 10V6E3)",
					"type": "Patient"
				},
				"id": "8ffd3058-8d80-47a0-bda4-0fc62b361df1",
				"encounter": {
					"reference": "Encounter/41ff8811-23ed-43f9-b302-f90485d915e4",
					"type": "Encounter"
				},
				"category": [
					{
						"coding": [
							{
								"system": "http://terminology.hl7.org/CodeSystem/observation-category",
								"code": "exam",
								"display": "Exam"
							}
						]
					}
				],
				"issued": "2022-06-07T13:24:22.000+03:00",
				"resourceType": "Observation",
				"status": "final"
			}
		},
		{
			"request": {
				"method": "POST"
			},
			"resource": {
				"valueCodeableConcept": {
					"coding": [
						{
							"code": "d7134dc4-ca6f-4cf4-b085-3f13ede07a54",
							"display": "Pulmonary Bacteriologically confirmed PTB"
						},
						{
							"system": "UgandaEMR",
							"code": "165829",
							"display": "Pulmonary Bacteriologically confirmed PTB"
						}
					]
				},
				"contained": [
					{
						"agent": [
							{
								"role": [
									{
										"coding": [
											{
												"system": "http://terminology.hl7.org/CodeSystemv3-ParticipationType",
												"code": "AUT",
												"display": "author"
											}
										]
									}
								],
								"type": {
									"coding": [
										{
											"system": "http://terminology.hl7.org/CodeSystemprovenance-participant-type",
											"code": "author",
											"display": "Author"
										}
									]
								},
								"who": {
									"reference": "Practitioner/1c3db49d-440a-11e6-a65c-00e04c680037",
									"display": "Emerson Kaseem",
									"type": "Practitioner"
								}
							}
						],
						"activity": {
							"coding": [
								{
									"system": "http://terminology.hl7.org/CodeSystemv3-DataOperation",
									"code": "CREATE",
									"display": "create"
								}
							]
						},
						"id": "d7b03412-24dc-4d37-a549-c8f06e9c07a8",
						"recorded": "2022-06-07T13:13:25.000+03:00",
						"resourceType": "Provenance"
					}
				],
				"code": {
					"coding": [
						{
							"code": "d45871ee-62d6-4d4d-b905-f7b75a3fd3bb",
							"display": "TB DISEASE CLASSIFICATION"
						},
						{
							"system": "UgandaEMR",
							"code": "99379",
							"display": "TB DISEASE CLASSIFICATION"
						}
					]
				},
				"effectiveDateTime": "2022-04-01T00:00:00+03:00",
				"subject": {
					"reference": "Patient/c350f310-fd89-44de-ad75-bb7827ca1d5b",
					"display": "Tom James (OpenMRS ID: 10V6E3)",
					"type": "Patient"
				},
				"id": "908f10bd-1cb3-4b6c-ab6f-ae9f50822a3b",
				"encounter": {
					"reference": "Encounter/7067e0f7-3309-41b4-8e89-fb3e77a7e537",
					"type": "Encounter"
				},
				"category": [
					{
						"coding": [
							{
								"system": "http://terminology.hl7.org/CodeSystem/observation-category",
								"code": "exam",
								"display": "Exam"
							}
						]
					}
				],
				"issued": "2022-06-07T13:13:25.000+03:00",
				"resourceType": "Observation",
				"status": "final"
			}
		},
		{
			"request": {
				"method": "POST"
			},
			"resource": {
				"valueCodeableConcept": {
					"coding": [
						{
							"code": "8846c03f-67bf-4aeb-8ca7-39bf79b4ebf3",
							"display": "GREEN"
						},
						{
							"system": "UgandaEMR",
							"code": "99027",
							"display": "GREEN"
						}
					]
				},
				"contained": [
					{
						"agent": [
							{
								"role": [
									{
										"coding": [
											{
												"system": "http://terminology.hl7.org/CodeSystemv3-ParticipationType",
												"code": "AUT",
												"display": "author"
											}
										]
									}
								],
								"type": {
									"coding": [
										{
											"system": "http://terminology.hl7.org/CodeSystemprovenance-participant-type",
											"code": "author",
											"display": "Author"
										}
									]
								},
								"who": {
									"reference": "Practitioner/1c3db49d-440a-11e6-a65c-00e04c680037",
									"display": "Emerson Kaseem",
									"type": "Practitioner"
								}
							}
						],
						"activity": {
							"coding": [
								{
									"system": "http://terminology.hl7.org/CodeSystemv3-DataOperation",
									"code": "CREATE",
									"display": "create"
								}
							]
						},
						"id": "bcc8fa53-d1b3-4c66-82c0-883fcf4dd9e0",
						"recorded": "2022-06-07T13:24:22.000+03:00",
						"resourceType": "Provenance"
					}
				],
				"code": {
					"coding": [
						{
							"code": "5f86d19d-9546-4466-89c0-6f80c101191b",
							"display": "MID-UPPER ARM CIRCUMFERENCE-CODE"
						},
						{
							"system": "UgandaEMR",
							"code": "99030",
							"display": "MID-UPPER ARM CIRCUMFERENCE-CODE"
						}
					]
				},
				"effectiveDateTime": "2022-04-01T00:00:00+03:00",
				"subject": {
					"reference": "Patient/c350f310-fd89-44de-ad75-bb7827ca1d5b",
					"display": "Tom James (OpenMRS ID: 10V6E3)",
					"type": "Patient"
				},
				"id": "924554d4-633e-4c47-aabc-54a52c5a7518",
				"encounter": {
					"reference": "Encounter/41ff8811-23ed-43f9-b302-f90485d915e4",
					"type": "Encounter"
				},
				"category": [
					{
						"coding": [
							{
								"system": "http://terminology.hl7.org/CodeSystem/observation-category",
								"code": "exam",
								"display": "Exam"
							}
						]
					}
				],
				"issued": "2022-06-07T13:24:22.000+03:00",
				"resourceType": "Observation",
				"status": "final"
			}
		},
		{
			"request": {
				"method": "POST"
			},
			"resource": {
				"valueCodeableConcept": {
					"coding": [
						{
							"code": "dcdf4653-30ab-102d-86b0-7a5022ba4115",
							"display": "HIV-"
						},
						{
							"system": "UgandaEMR",
							"code": "90167",
							"display": "HIV-"
						}
					]
				},
				"contained": [
					{
						"agent": [
							{
								"role": [
									{
										"coding": [
											{
												"system": "http://terminology.hl7.org/CodeSystemv3-ParticipationType",
												"code": "AUT",
												"display": "author"
											}
										]
									}
								],
								"type": {
									"coding": [
										{
											"system": "http://terminology.hl7.org/CodeSystemprovenance-participant-type",
											"code": "author",
											"display": "Author"
										}
									]
								},
								"who": {
									"reference": "Practitioner/1c3db49d-440a-11e6-a65c-00e04c680037",
									"display": "Emerson Kaseem",
									"type": "Practitioner"
								}
							}
						],
						"activity": {
							"coding": [
								{
									"system": "http://terminology.hl7.org/CodeSystemv3-DataOperation",
									"code": "CREATE",
									"display": "create"
								}
							]
						},
						"id": "de204ead-6508-4ce6-8730-c62f5c28cfad",
						"recorded": "2022-06-07T13:13:25.000+03:00",
						"resourceType": "Provenance"
					}
				],
				"code": {
					"coding": [
						{
							"code": "5737ab4e-53f9-418e-94f4-35da78ab884f",
							"display": "HIV Positive Category"
						},
						{
							"system": "UgandaEMR",
							"code": "165396",
							"display": "HIV Positive Category"
						}
					]
				},
				"effectiveDateTime": "2022-04-01T00:00:00+03:00",
				"subject": {
					"reference": "Patient/c350f310-fd89-44de-ad75-bb7827ca1d5b",
					"display": "Tom James (OpenMRS ID: 10V6E3)",
					"type": "Patient"
				},
				"id": "96ad0997-7b17-4709-b556-65bccf8224d7",
				"encounter": {
					"reference": "Encounter/7067e0f7-3309-41b4-8e89-fb3e77a7e537",
					"type": "Encounter"
				},
				"issued": "2022-06-07T13:13:25.000+03:00",
				"resourceType": "Observation",
				"status": "final"
			}
		},
		{
			"request": {
				"method": "POST"
			},
			"resource": {
				"valueBoolean": true,
				"contained": [
					{
						"agent": [
							{
								"role": [
									{
										"coding": [
											{
												"system": "http://terminology.hl7.org/CodeSystemv3-ParticipationType",
												"code": "AUT",
												"display": "author"
											}
										]
									}
								],
								"type": {
									"coding": [
										{
											"system": "http://terminology.hl7.org/CodeSystemprovenance-participant-type",
											"code": "author",
											"display": "Author"
										}
									]
								},
								"who": {
									"reference": "Practitioner/1c3db49d-440a-11e6-a65c-00e04c680037",
									"display": "Emerson Kaseem",
									"type": "Practitioner"
								}
							}
						],
						"activity": {
							"coding": [
								{
									"system": "http://terminology.hl7.org/CodeSystemv3-DataOperation",
									"code": "CREATE",
									"display": "create"
								}
							]
						},
						"id": "0d1e7c23-cb33-418d-8cb4-5f2522623d1d",
						"recorded": "2022-06-07T13:13:25.000+03:00",
						"resourceType": "Provenance"
					}
				],
				"code": {
					"coding": [
						{
							"code": "56a01780-5fcb-46ce-88d2-18f2f320c252",
							"display": "Started On TB First line"
						},
						{
							"system": "UgandaEMR",
							"code": "165837",
							"display": "Started On TB First line"
						}
					]
				},
				"effectiveDateTime": "2022-04-01T00:00:00+03:00",
				"subject": {
					"reference": "Patient/c350f310-fd89-44de-ad75-bb7827ca1d5b",
					"display": "Tom James (OpenMRS ID: 10V6E3)",
					"type": "Patient"
				},
				"id": "a2cc7f87-62da-4b85-b9c3-b732a46f35fb",
				"encounter": {
					"reference": "Encounter/7067e0f7-3309-41b4-8e89-fb3e77a7e537",
					"type": "Encounter"
				},
				"category": [
					{
						"coding": [
							{
								"system": "http://terminology.hl7.org/CodeSystem/observation-category",
								"code": "exam",
								"display": "Exam"
							}
						]
					}
				],
				"issued": "2022-06-07T13:13:25.000+03:00",
				"resourceType": "Observation",
				"status": "final"
			}
		},
		{
			"request": {
				"method": "POST"
			},
			"resource": {
				"valueCodeableConcept": {
					"coding": [
						{
							"code": "162204AAAAAAAAAAAAAAAAAAAAAAAAAAAAAA",
							"display": "Mycobacterium tuberculosis detected without rifampin resistance"
						},
						{
							"system": "UgandaEMR",
							"code": "162204",
							"display": "Mycobacterium tuberculosis detected without rifampin resistance"
						}
					]
				},
				"contained": [
					{
						"agent": [
							{
								"role": [
									{
										"coding": [
											{
												"system": "http://terminology.hl7.org/CodeSystemv3-ParticipationType",
												"code": "AUT",
												"display": "author"
											}
										]
									}
								],
								"type": {
									"coding": [
										{
											"system": "http://terminology.hl7.org/CodeSystemprovenance-participant-type",
											"code": "author",
											"display": "Author"
										}
									]
								},
								"who": {
									"reference": "Practitioner/1c3db49d-440a-11e6-a65c-00e04c680037",
									"display": "Emerson Kaseem",
									"type": "Practitioner"
								}
							}
						],
						"activity": {
							"coding": [
								{
									"system": "http://terminology.hl7.org/CodeSystemv3-DataOperation",
									"code": "CREATE",
									"display": "create"
								}
							]
						},
						"id": "9b53fb90-0562-482b-84f6-605d76abfded",
						"recorded": "2022-06-07T13:13:25.000+03:00",
						"resourceType": "Provenance"
					}
				],
				"code": {
					"coding": [
						{
							"code": "162202AAAAAAAAAAAAAAAAAAAAAAAAAAAAAA",
							"display": "Tuberculosis polymerase chain reaction with rifampin resistance checking"
						},
						{
							"system": "UgandaEMR",
							"code": "162202",
							"display": "Tuberculosis polymerase chain reaction with rifampin resistance checking"
						}
					]
				},
				"effectiveDateTime": "2022-04-01T00:00:00+03:00",
				"subject": {
					"reference": "Patient/c350f310-fd89-44de-ad75-bb7827ca1d5b",
					"display": "Tom James (OpenMRS ID: 10V6E3)",
					"type": "Patient"
				},
				"id": "b052c70d-e78e-4b2a-b58d-3e782996c4aa",
				"encounter": {
					"reference": "Encounter/7067e0f7-3309-41b4-8e89-fb3e77a7e537",
					"type": "Encounter"
				},
				"category": [
					{
						"coding": [
							{
								"system": "http://terminology.hl7.org/CodeSystem/observation-category",
								"code": "laboratory",
								"display": "Laboratory"
							}
						]
					}
				],
				"issued": "2022-06-07T13:13:25.000+03:00",
				"resourceType": "Observation",
				"status": "final"
			}
		},
		{
			"request": {
				"method": "POST"
			},
			"resource": {
				"contained": [
					{
						"agent": [
							{
								"role": [
									{
										"coding": [
											{
												"system": "http://terminology.hl7.org/CodeSystemv3-ParticipationType",
												"code": "AUT",
												"display": "author"
											}
										]
									}
								],
								"type": {
									"coding": [
										{
											"system": "http://terminology.hl7.org/CodeSystemprovenance-participant-type",
											"code": "author",
											"display": "Author"
										}
									]
								},
								"who": {
									"reference": "Practitioner/1c3db49d-440a-11e6-a65c-00e04c680037",
									"display": "Emerson Kaseem",
									"type": "Practitioner"
								}
							}
						],
						"activity": {
							"coding": [
								{
									"system": "http://terminology.hl7.org/CodeSystemv3-DataOperation",
									"code": "CREATE",
									"display": "create"
								}
							]
						},
						"id": "4df75b9d-d9b9-4844-809e-b0cdf52ec7c5",
						"recorded": "2022-06-07T13:24:22.000+03:00",
						"resourceType": "Provenance"
					}
				],
				"referenceRange": [
					{
						"high": {
							"value": 272
						},
						"low": {
							"value": 10
						},
						"type": {
							"coding": [
								{
									"system": "http://fhir.openmrs.org/ext/obs/reference-range",
									"code": "absolute"
								}
							]
						}
					}
				],
				"code": {
					"coding": [
						{
							"code": "5090AAAAAAAAAAAAAAAAAAAAAAAAAAAAAAAA",
							"display": "Height (cm)"
						},
						{
							"system": "http://loinc.org",
							"code": "8302-2",
							"display": "Height (cm)"
						},
						{
							"system": "http://snomed.info/sct",
							"code": "50373000",
							"display": "Height (cm)"
						},
						{
							"system": "https://openconceptlab.org/orgs/CIEL/sources/CIEL",
							"code": "5090",
							"display": "Height (cm)"
						},
						{
							"system": "UgandaEMR",
							"code": "5090",
							"display": "Height (cm)"
						},
						{
							"system": "LOINC",
							"code": "8302-2",
							"display": "null"
						},
						{
							"system": "SNOMED CT",
							"code": "50373000",
							"display": "null"
						},
						{
							"system": "AMPATH",
							"code": "5090",
							"display": "null"
						},
						{
							"system": "PIH Malawi",
							"code": "5090",
							"display": "null"
						},
						{
							"system": "CIEL",
							"code": "5090",
							"display": "null"
						},
						{
							"system": "PIH",
							"code": "5090",
							"display": "null"
						}
					]
				},
				"effectiveDateTime": "2022-04-01T00:00:00+03:00",
				"subject": {
					"reference": "Patient/c350f310-fd89-44de-ad75-bb7827ca1d5b",
					"display": "Tom James (OpenMRS ID: 10V6E3)",
					"type": "Patient"
				},
				"id": "b079d9c0-1bc4-4d0c-807a-341eb5814a81",
				"encounter": {
					"reference": "Encounter/41ff8811-23ed-43f9-b302-f90485d915e4",
					"type": "Encounter"
				},
				"category": [
					{
						"coding": [
							{
								"system": "http://terminology.hl7.org/CodeSystem/observation-category",
								"code": "exam",
								"display": "Exam"
							}
						]
					}
				],
				"issued": "2022-06-07T13:24:22.000+03:00",
				"resourceType": "Observation",
				"status": "final",
				"valueQuantity": {
					"unit": "cm",
					"value": 165
				}
			}
		},
		{
			"request": {
				"method": "POST"
			},
			"resource": {
				"contained": [
					{
						"agent": [
							{
								"role": [
									{
										"coding": [
											{
												"system": "http://terminology.hl7.org/CodeSystemv3-ParticipationType",
												"code": "AUT",
												"display": "author"
											}
										]
									}
								],
								"type": {
									"coding": [
										{
											"system": "http://terminology.hl7.org/CodeSystemprovenance-participant-type",
											"code": "author",
											"display": "Author"
										}
									]
								},
								"who": {
									"reference": "Practitioner/1c3db49d-440a-11e6-a65c-00e04c680037",
									"display": "Emerson Kaseem",
									"type": "Practitioner"
								}
							}
						],
						"activity": {
							"coding": [
								{
									"system": "http://terminology.hl7.org/CodeSystemv3-DataOperation",
									"code": "CREATE",
									"display": "create"
								}
							]
						},
						"id": "31cf736a-d223-48a6-b6d7-34e66c5ae7f1",
						"recorded": "2022-06-07T13:13:25.000+03:00",
						"resourceType": "Provenance"
					}
				],
				"code": {
					"coding": [
						{
							"code": "67ac3702-5ec1-4c52-8e80-405ec99b723b",
							"display": "Date Diagnosed with DR TB"
						},
						{
							"system": "UgandaEMR",
							"code": "165840",
							"display": "Date Diagnosed with DR TB"
						}
					]
				},
				"effectiveDateTime": "2022-04-01T00:00:00+03:00",
				"subject": {
					"reference": "Patient/c350f310-fd89-44de-ad75-bb7827ca1d5b",
					"display": "Tom James (OpenMRS ID: 10V6E3)",
					"type": "Patient"
				},
				"valueDateTime": "2022-04-01T00:00:00+03:00",
				"id": "bd03e77d-054c-462e-a223-4885082ea5aa",
				"encounter": {
					"reference": "Encounter/7067e0f7-3309-41b4-8e89-fb3e77a7e537",
					"type": "Encounter"
				},
				"category": [
					{
						"coding": [
							{
								"system": "http://terminology.hl7.org/CodeSystem/observation-category",
								"code": "exam",
								"display": "Exam"
							}
						]
					}
				],
				"issued": "2022-06-07T13:13:25.000+03:00",
				"resourceType": "Observation",
				"status": "final"
			}
		},
		{
			"request": {
				"method": "POST"
			},
			"resource": {
				"valueCodeableConcept": {
					"coding": [
						{
							"code": "dc9816bd-30ab-102d-86b0-7a5022ba4115",
							"display": "NORMAL"
						},
						{
							"system": "UgandaEMR",
							"code": "1115",
							"display": "NORMAL"
						}
					]
				},
				"contained": [
					{
						"agent": [
							{
								"role": [
									{
										"coding": [
											{
												"system": "http://terminology.hl7.org/CodeSystemv3-ParticipationType",
												"code": "AUT",
												"display": "author"
											}
										]
									}
								],
								"type": {
									"coding": [
										{
											"system": "http://terminology.hl7.org/CodeSystemprovenance-participant-type",
											"code": "author",
											"display": "Author"
										}
									]
								},
								"who": {
									"reference": "Practitioner/1c3db49d-440a-11e6-a65c-00e04c680037",
									"display": "Emerson Kaseem",
									"type": "Practitioner"
								}
							}
						],
						"activity": {
							"coding": [
								{
									"system": "http://terminology.hl7.org/CodeSystemv3-DataOperation",
									"code": "CREATE",
									"display": "create"
								}
							]
						},
						"id": "f4c9933c-9640-4cbc-ac63-661e0b496c31",
						"recorded": "2022-06-07T13:24:22.000+03:00",
						"resourceType": "Provenance"
					}
				],
				"code": {
					"coding": [
						{
							"code": "165050AAAAAAAAAAAAAAAAAAAAAAAAAAAAAA",
							"display": "Nutrition Assesment"
						},
						{
							"system": "UgandaEMR",
							"code": "165050",
							"display": "Nutrition Assesment"
						}
					]
				},
				"effectiveDateTime": "2022-04-01T00:00:00+03:00",
				"subject": {
					"reference": "Patient/c350f310-fd89-44de-ad75-bb7827ca1d5b",
					"display": "Tom James (OpenMRS ID: 10V6E3)",
					"type": "Patient"
				},
				"id": "c1542dd9-f04c-41bc-923f-27dff918b9f4",
				"encounter": {
					"reference": "Encounter/41ff8811-23ed-43f9-b302-f90485d915e4",
					"type": "Encounter"
				},
				"category": [
					{
						"coding": [
							{
								"system": "http://terminology.hl7.org/CodeSystem/observation-category",
								"code": "exam",
								"display": "Exam"
							}
						]
					}
				],
				"issued": "2022-06-07T13:24:22.000+03:00",
				"resourceType": "Observation",
				"status": "final"
			}
		},
		{
			"request": {
				"method": "POST"
			},
			"resource": {
				"contained": [
					{
						"agent": [
							{
								"role": [
									{
										"coding": [
											{
												"system": "http://terminology.hl7.org/CodeSystemv3-ParticipationType",
												"code": "AUT",
												"display": "author"
											}
										]
									}
								],
								"type": {
									"coding": [
										{
											"system": "http://terminology.hl7.org/CodeSystemprovenance-participant-type",
											"code": "author",
											"display": "Author"
										}
									]
								},
								"who": {
									"reference": "Practitioner/1c3db49d-440a-11e6-a65c-00e04c680037",
									"display": "Emerson Kaseem",
									"type": "Practitioner"
								}
							}
						],
						"activity": {
							"coding": [
								{
									"system": "http://terminology.hl7.org/CodeSystemv3-DataOperation",
									"code": "CREATE",
									"display": "create"
								}
							]
						},
						"id": "49100877-976e-4bf8-b323-d985ebe1dd65",
						"recorded": "2022-06-07T13:13:25.000+03:00",
						"resourceType": "Provenance"
					}
				],
				"code": {
					"coding": [
						{
							"code": "2e412ead-4f7c-4589-a1e2-2d3a43928927",
							"display": "Diabetes Monitoring Set"
						},
						{
							"system": "UgandaEMR",
							"code": "165857",
							"display": "Diabetes Monitoring Set"
						}
					]
				},
				"valueString": "Known Diabetes Mellitus, Random Blood sugar, 2022-04-01",
				"effectiveDateTime": "2022-04-01T00:00:00+03:00",
				"subject": {
					"reference": "Patient/c350f310-fd89-44de-ad75-bb7827ca1d5b",
					"display": "Tom James (OpenMRS ID: 10V6E3)",
					"type": "Patient"
				},
				"hasMember": [
					{
						"reference": "Observation/22f46ab0-98e5-40dd-b9f9-cc628ea2d21c",
						"type": "Observation"
					},
					{
						"reference": "Observation/1b46165d-f486-416c-8f5a-a2dc40b5f4cc",
						"type": "Observation"
					},
					{
						"reference": "Observation/dac1e9d2-33bd-40b1-ac04-db944e4be848",
						"type": "Observation"
					}
				],
				"id": "c7f830c5-3e21-4db9-be70-51f3ccb10dd8",
				"encounter": {
					"reference": "Encounter/7067e0f7-3309-41b4-8e89-fb3e77a7e537",
					"type": "Encounter"
				},
				"issued": "2022-06-07T13:13:25.000+03:00",
				"resourceType": "Observation",
				"status": "final"
			}
		},
		{
			"request": {
				"method": "POST"
			},
			"resource": {
				"valueCodeableConcept": {
					"coding": [
						{
							"code": "2cf5644d-73a7-42f2-b18c-f773f40b648c",
							"display": "GeneXpert Test"
						},
						{
							"system": "UgandaEMR",
							"code": "165413",
							"display": "GeneXpert Test"
						}
					]
				},
				"contained": [
					{
						"agent": [
							{
								"role": [
									{
										"coding": [
											{
												"system": "http://terminology.hl7.org/CodeSystemv3-ParticipationType",
												"code": "AUT",
												"display": "author"
											}
										]
									}
								],
								"type": {
									"coding": [
										{
											"system": "http://terminology.hl7.org/CodeSystemprovenance-participant-type",
											"code": "author",
											"display": "Author"
										}
									]
								},
								"who": {
									"reference": "Practitioner/1c3db49d-440a-11e6-a65c-00e04c680037",
									"display": "Emerson Kaseem",
									"type": "Practitioner"
								}
							}
						],
						"activity": {
							"coding": [
								{
									"system": "http://terminology.hl7.org/CodeSystemv3-DataOperation",
									"code": "CREATE",
									"display": "create"
								}
							]
						},
						"id": "7fd1b6fd-16bb-43cf-aa73-02a6b3a29125",
						"recorded": "2022-06-07T13:13:25.000+03:00",
						"resourceType": "Provenance"
					}
				],
				"code": {
					"coding": [
						{
							"code": "1eb51d98-a49f-4a9a-87a1-6c3541b5713a",
							"display": "Baseline TB Test"
						},
						{
							"system": "UgandaEMR",
							"code": "165844",
							"display": "Baseline TB Test"
						}
					]
				},
				"effectiveDateTime": "2022-04-01T00:00:00+03:00",
				"subject": {
					"reference": "Patient/c350f310-fd89-44de-ad75-bb7827ca1d5b",
					"display": "Tom James (OpenMRS ID: 10V6E3)",
					"type": "Patient"
				},
				"id": "ccdc12ee-cd0b-45a7-91be-d4dbe47cb6a9",
				"encounter": {
					"reference": "Encounter/7067e0f7-3309-41b4-8e89-fb3e77a7e537",
					"type": "Encounter"
				},
				"category": [
					{
						"coding": [
							{
								"system": "http://terminology.hl7.org/CodeSystem/observation-category",
								"code": "exam",
								"display": "Exam"
							}
						]
					}
				],
				"issued": "2022-06-07T13:13:25.000+03:00",
				"resourceType": "Observation",
				"status": "final"
			}
		},
		{
			"request": {
				"method": "POST"
			},
			"resource": {
				"contained": [
					{
						"agent": [
							{
								"role": [
									{
										"coding": [
											{
												"system": "http://terminology.hl7.org/CodeSystemv3-ParticipationType",
												"code": "AUT",
												"display": "author"
											}
										]
									}
								],
								"type": {
									"coding": [
										{
											"system": "http://terminology.hl7.org/CodeSystemprovenance-participant-type",
											"code": "author",
											"display": "Author"
										}
									]
								},
								"who": {
									"reference": "Practitioner/1c3db49d-440a-11e6-a65c-00e04c680037",
									"display": "Emerson Kaseem",
									"type": "Practitioner"
								}
							}
						],
						"activity": {
							"coding": [
								{
									"system": "http://terminology.hl7.org/CodeSystemv3-DataOperation",
									"code": "CREATE",
									"display": "create"
								}
							]
						},
						"id": "aa0224c3-127c-47a1-b0a7-3e471dfe9c58",
						"recorded": "2022-06-07T13:24:22.000+03:00",
						"resourceType": "Provenance"
					}
				],
				"code": {
					"coding": [
						{
							"code": "159368AAAAAAAAAAAAAAAAAAAAAAAAAAAAAA",
							"display": "Medication duration"
						},
						{
							"system": "UgandaEMR",
							"code": "159368",
							"display": "Medication duration"
						}
					]
				},
				"effectiveDateTime": "2022-04-01T00:00:00+03:00",
				"subject": {
					"reference": "Patient/c350f310-fd89-44de-ad75-bb7827ca1d5b",
					"display": "Tom James (OpenMRS ID: 10V6E3)",
					"type": "Patient"
				},
				"id": "cee98b1a-30ae-499f-b835-553a0259d50f",
				"encounter": {
					"reference": "Encounter/41ff8811-23ed-43f9-b302-f90485d915e4",
					"type": "Encounter"
				},
				"issued": "2022-06-07T13:24:22.000+03:00",
				"resourceType": "Observation",
				"status": "final",
				"valueQuantity": {
					"value": 30
				}
			}
		},
		{
			"request": {
				"method": "POST"
			},
			"resource": {
				"contained": [
					{
						"agent": [
							{
								"role": [
									{
										"coding": [
											{
												"system": "http://terminology.hl7.org/CodeSystemv3-ParticipationType",
												"code": "AUT",
												"display": "author"
											}
										]
									}
								],
								"type": {
									"coding": [
										{
											"system": "http://terminology.hl7.org/CodeSystemprovenance-participant-type",
											"code": "author",
											"display": "Author"
										}
									]
								},
								"who": {
									"reference": "Practitioner/1c3db49d-440a-11e6-a65c-00e04c680037",
									"display": "Emerson Kaseem",
									"type": "Practitioner"
								}
							}
						],
						"activity": {
							"coding": [
								{
									"system": "http://terminology.hl7.org/CodeSystemv3-DataOperation",
									"code": "CREATE",
									"display": "create"
								}
							]
						},
						"id": "fae73b7b-c45b-4fc8-b8f3-58960d30de3f",
						"recorded": "2022-06-07T13:13:25.000+03:00",
						"resourceType": "Provenance"
					}
				],
				"code": {
					"coding": [
						{
							"code": "d2f31713-aada-4d0d-9340-014b2371bdd8",
							"display": "Examination Date"
						},
						{
							"system": "UgandaEMR",
							"code": "164431",
							"display": "Examination Date"
						}
					]
				},
				"effectiveDateTime": "2022-04-01T00:00:00+03:00",
				"subject": {
					"reference": "Patient/c350f310-fd89-44de-ad75-bb7827ca1d5b",
					"display": "Tom James (OpenMRS ID: 10V6E3)",
					"type": "Patient"
				},
				"valueDateTime": "2022-04-01T00:00:00+03:00",
				"id": "d3317e21-a03b-42b5-b0fc-829f08c5e90a",
				"encounter": {
					"reference": "Encounter/7067e0f7-3309-41b4-8e89-fb3e77a7e537",
					"type": "Encounter"
				},
				"category": [
					{
						"coding": [
							{
								"system": "http://terminology.hl7.org/CodeSystem/observation-category",
								"code": "exam",
								"display": "Exam"
							}
						]
					}
				],
				"issued": "2022-06-07T13:13:25.000+03:00",
				"resourceType": "Observation",
				"status": "final"
			}
		},
		{
			"request": {
				"method": "POST"
			},
			"resource": {
				"valueCodeableConcept": {
					"coding": [
						{
							"code": "dcdf4653-30ab-102d-86b0-7a5022ba4115",
							"display": "HIV-"
						},
						{
							"system": "UgandaEMR",
							"code": "90167",
							"display": "HIV-"
						}
					]
				},
				"contained": [
					{
						"agent": [
							{
								"role": [
									{
										"coding": [
											{
												"system": "http://terminology.hl7.org/CodeSystemv3-ParticipationType",
												"code": "AUT",
												"display": "author"
											}
										]
									}
								],
								"type": {
									"coding": [
										{
											"system": "http://terminology.hl7.org/CodeSystemprovenance-participant-type",
											"code": "author",
											"display": "Author"
										}
									]
								},
								"who": {
									"reference": "Practitioner/1c3db49d-440a-11e6-a65c-00e04c680037",
									"display": "Emerson Kaseem",
									"type": "Practitioner"
								}
							}
						],
						"activity": {
							"coding": [
								{
									"system": "http://terminology.hl7.org/CodeSystemv3-DataOperation",
									"code": "CREATE",
									"display": "create"
								}
							]
						},
						"id": "e1a98bfa-600b-45ea-8718-cfc25cd92883",
						"recorded": "2022-06-07T13:24:22.000+03:00",
						"resourceType": "Provenance"
					}
				],
				"code": {
					"coding": [
						{
							"code": "5737ab4e-53f9-418e-94f4-35da78ab884f",
							"display": "HIV Positive Category"
						},
						{
							"system": "UgandaEMR",
							"code": "165396",
							"display": "HIV Positive Category"
						}
					]
				},
				"effectiveDateTime": "2022-04-01T00:00:00+03:00",
				"subject": {
					"reference": "Patient/c350f310-fd89-44de-ad75-bb7827ca1d5b",
					"display": "Tom James (OpenMRS ID: 10V6E3)",
					"type": "Patient"
				},
				"id": "d5d003ef-241e-432e-a88a-7be4c1a35916",
				"encounter": {
					"reference": "Encounter/41ff8811-23ed-43f9-b302-f90485d915e4",
					"type": "Encounter"
				},
				"issued": "2022-06-07T13:24:22.000+03:00",
				"resourceType": "Observation",
				"status": "final"
			}
		},
		{
			"request": {
				"method": "POST"
			},
			"resource": {
				"valueCodeableConcept": {
					"coding": [
						{
							"code": "2cf5644d-73a7-42f2-b18c-f773f40b648c",
							"display": "GeneXpert Test"
						},
						{
							"system": "UgandaEMR",
							"code": "165413",
							"display": "GeneXpert Test"
						}
					]
				},
				"contained": [
					{
						"agent": [
							{
								"role": [
									{
										"coding": [
											{
												"system": "http://terminology.hl7.org/CodeSystemv3-ParticipationType",
												"code": "AUT",
												"display": "author"
											}
										]
									}
								],
								"type": {
									"coding": [
										{
											"system": "http://terminology.hl7.org/CodeSystemprovenance-participant-type",
											"code": "author",
											"display": "Author"
										}
									]
								},
								"who": {
									"reference": "Practitioner/1c3db49d-440a-11e6-a65c-00e04c680037",
									"display": "Emerson Kaseem",
									"type": "Practitioner"
								}
							}
						],
						"activity": {
							"coding": [
								{
									"system": "http://terminology.hl7.org/CodeSystemv3-DataOperation",
									"code": "CREATE",
									"display": "create"
								}
							]
						},
						"id": "fc1bdc0d-686b-4752-9cfe-52a31f2140c3",
						"recorded": "2022-06-07T13:24:22.000+03:00",
						"resourceType": "Provenance"
					}
				],
				"code": {
					"coding": [
						{
							"code": "1eb51d98-a49f-4a9a-87a1-6c3541b5713a",
							"display": "Baseline TB Test"
						},
						{
							"system": "UgandaEMR",
							"code": "165844",
							"display": "Baseline TB Test"
						}
					]
				},
				"effectiveDateTime": "2022-04-01T00:00:00+03:00",
				"subject": {
					"reference": "Patient/c350f310-fd89-44de-ad75-bb7827ca1d5b",
					"display": "Tom James (OpenMRS ID: 10V6E3)",
					"type": "Patient"
				},
				"id": "d9365617-4b14-4dfb-9e32-fe470994866e",
				"encounter": {
					"reference": "Encounter/41ff8811-23ed-43f9-b302-f90485d915e4",
					"type": "Encounter"
				},
				"category": [
					{
						"coding": [
							{
								"system": "http://terminology.hl7.org/CodeSystem/observation-category",
								"code": "exam",
								"display": "Exam"
							}
						]
					}
				],
				"issued": "2022-06-07T13:24:22.000+03:00",
				"resourceType": "Observation",
				"status": "final"
			}
		},
		{
			"request": {
				"method": "POST"
			},
			"resource": {
				"contained": [
					{
						"agent": [
							{
								"role": [
									{
										"coding": [
											{
												"system": "http://terminology.hl7.org/CodeSystemv3-ParticipationType",
												"code": "AUT",
												"display": "author"
											}
										]
									}
								],
								"type": {
									"coding": [
										{
											"system": "http://terminology.hl7.org/CodeSystemprovenance-participant-type",
											"code": "author",
											"display": "Author"
										}
									]
								},
								"who": {
									"reference": "Practitioner/1c3db49d-440a-11e6-a65c-00e04c680037",
									"display": "Emerson Kaseem",
									"type": "Practitioner"
								}
							}
						],
						"activity": {
							"coding": [
								{
									"system": "http://terminology.hl7.org/CodeSystemv3-DataOperation",
									"code": "CREATE",
									"display": "create"
								}
							]
						},
						"id": "5e648f5f-9493-4141-a624-e5bc086883c8",
						"recorded": "2022-06-07T13:13:25.000+03:00",
						"resourceType": "Provenance"
					}
				],
				"code": {
					"coding": [
						{
							"code": "d2f31713-aada-4d0d-9340-014b2371bdd8",
							"display": "Examination Date"
						},
						{
							"system": "UgandaEMR",
							"code": "164431",
							"display": "Examination Date"
						}
					]
				},
				"effectiveDateTime": "2022-04-01T00:00:00+03:00",
				"subject": {
					"reference": "Patient/c350f310-fd89-44de-ad75-bb7827ca1d5b",
					"display": "Tom James (OpenMRS ID: 10V6E3)",
					"type": "Patient"
				},
				"valueDateTime": "2022-04-01T00:00:00+03:00",
				"id": "dac1e9d2-33bd-40b1-ac04-db944e4be848",
				"encounter": {
					"reference": "Encounter/7067e0f7-3309-41b4-8e89-fb3e77a7e537",
					"type": "Encounter"
				},
				"category": [
					{
						"coding": [
							{
								"system": "http://terminology.hl7.org/CodeSystem/observation-category",
								"code": "exam",
								"display": "Exam"
							}
						]
					}
				],
				"issued": "2022-06-07T13:13:25.000+03:00",
				"resourceType": "Observation",
				"status": "final"
			}
		},
		{
			"request": {
				"method": "POST"
			},
			"resource": {
				"contained": [
					{
						"agent": [
							{
								"role": [
									{
										"coding": [
											{
												"system": "http://terminology.hl7.org/CodeSystemv3-ParticipationType",
												"code": "AUT",
												"display": "author"
											}
										]
									}
								],
								"type": {
									"coding": [
										{
											"system": "http://terminology.hl7.org/CodeSystemprovenance-participant-type",
											"code": "author",
											"display": "Author"
										}
									]
								},
								"who": {
									"reference": "Practitioner/1c3db49d-440a-11e6-a65c-00e04c680037",
									"display": "Emerson Kaseem",
									"type": "Practitioner"
								}
							}
						],
						"activity": {
							"coding": [
								{
									"system": "http://terminology.hl7.org/CodeSystemv3-DataOperation",
									"code": "CREATE",
									"display": "create"
								}
							]
						},
						"id": "1ed6127a-a67f-4fcd-878d-ed5de5625a46",
						"recorded": "2022-06-07T13:13:25.000+03:00",
						"resourceType": "Provenance"
					}
				],
				"code": {
					"coding": [
						{
							"code": "2e2ec250-f5d3-4de7-8c70-a458f42441e6",
							"display": "Unit TB No"
						},
						{
							"system": "UgandaEMR",
							"code": "165826",
							"display": "Unit TB No"
						}
					]
				},
				"valueString": "68574633",
				"effectiveDateTime": "2022-04-01T00:00:00+03:00",
				"subject": {
					"reference": "Patient/c350f310-fd89-44de-ad75-bb7827ca1d5b",
					"display": "Tom James (OpenMRS ID: 10V6E3)",
					"type": "Patient"
				},
				"id": "dd0d9abd-dd7d-4c34-902a-32bd14ba0425",
				"encounter": {
					"reference": "Encounter/7067e0f7-3309-41b4-8e89-fb3e77a7e537",
					"type": "Encounter"
				},
				"category": [
					{
						"coding": [
							{
								"system": "http://terminology.hl7.org/CodeSystem/observation-category",
								"code": "exam",
								"display": "Exam"
							}
						]
					}
				],
				"issued": "2022-06-07T13:13:25.000+03:00",
				"resourceType": "Observation",
				"status": "final"
			}
		},
		{
			"request": {
				"method": "POST"
			},
			"resource": {
				"valueCodeableConcept": {
					"coding": [
						{
							"code": "002dfa89-5b94-4e7e-bc74-b5e556a7734a",
							"display": "Family Member"
						},
						{
							"system": "UgandaEMR",
							"code": "165827",
							"display": "Family Member"
						}
					]
				},
				"contained": [
					{
						"agent": [
							{
								"role": [
									{
										"coding": [
											{
												"system": "http://terminology.hl7.org/CodeSystemv3-ParticipationType",
												"code": "AUT",
												"display": "author"
											}
										]
									}
								],
								"type": {
									"coding": [
										{
											"system": "http://terminology.hl7.org/CodeSystemprovenance-participant-type",
											"code": "author",
											"display": "Author"
										}
									]
								},
								"who": {
									"reference": "Practitioner/1c3db49d-440a-11e6-a65c-00e04c680037",
									"display": "Emerson Kaseem",
									"type": "Practitioner"
								}
							}
						],
						"activity": {
							"coding": [
								{
									"system": "http://terminology.hl7.org/CodeSystemv3-DataOperation",
									"code": "CREATE",
									"display": "create"
								}
							]
						},
						"id": "43814a58-1c1e-46be-81e0-5dddd7ff477b",
						"recorded": "2022-06-07T13:13:25.000+03:00",
						"resourceType": "Provenance"
					}
				],
				"code": {
					"coding": [
						{
							"code": "805a9d40-8922-4fb0-8208-7c0fdf57936a",
							"display": "Treatment Supporter Type"
						},
						{
							"system": "UgandaEMR",
							"code": "165828",
							"display": "Treatment Supporter Type"
						}
					]
				},
				"effectiveDateTime": "2022-04-01T00:00:00+03:00",
				"subject": {
					"reference": "Patient/c350f310-fd89-44de-ad75-bb7827ca1d5b",
					"display": "Tom James (OpenMRS ID: 10V6E3)",
					"type": "Patient"
				},
				"id": "de43f5ea-2923-4802-86c4-0292575a66a9",
				"encounter": {
					"reference": "Encounter/7067e0f7-3309-41b4-8e89-fb3e77a7e537",
					"type": "Encounter"
				},
				"category": [
					{
						"coding": [
							{
								"system": "http://terminology.hl7.org/CodeSystem/observation-category",
								"code": "exam",
								"display": "Exam"
							}
						]
					}
				],
				"issued": "2022-06-07T13:13:25.000+03:00",
				"resourceType": "Observation",
				"status": "final"
			}
		},
		{
			"request": {
				"method": "POST"
			},
			"resource": {
				"contained": [
					{
						"agent": [
							{
								"role": [
									{
										"coding": [
											{
												"system": "http://terminology.hl7.org/CodeSystemv3-ParticipationType",
												"code": "AUT",
												"display": "author"
											}
										]
									}
								],
								"type": {
									"coding": [
										{
											"system": "http://terminology.hl7.org/CodeSystemprovenance-participant-type",
											"code": "author",
											"display": "Author"
										}
									]
								},
								"who": {
									"reference": "Practitioner/1c3db49d-440a-11e6-a65c-00e04c680037",
									"display": "Emerson Kaseem",
									"type": "Practitioner"
								}
							}
						],
						"activity": {
							"coding": [
								{
									"system": "http://terminology.hl7.org/CodeSystemv3-DataOperation",
									"code": "CREATE",
									"display": "create"
								}
							]
						},
						"id": "f874ab58-1ba4-4af7-9e0f-0f2a09ca3728",
						"recorded": "2022-06-07T13:24:22.000+03:00",
						"resourceType": "Provenance"
					}
				],
				"code": {
					"coding": [
						{
							"code": "dcac04cf-30ab-102d-86b0-7a5022ba4115",
							"display": "RETURN VISIT DATE"
						},
						{
							"system": "UgandaEMR",
							"code": "5096",
							"display": "RETURN VISIT DATE"
						}
					]
				},
				"effectiveDateTime": "2022-04-01T00:00:00+03:00",
				"subject": {
					"reference": "Patient/c350f310-fd89-44de-ad75-bb7827ca1d5b",
					"display": "Tom James (OpenMRS ID: 10V6E3)",
					"type": "Patient"
				},
				"valueDateTime": "2022-04-15T00:00:00+03:00",
				"id": "e0c8d4c0-efc0-456f-8a89-0b199963d712",
				"encounter": {
					"reference": "Encounter/41ff8811-23ed-43f9-b302-f90485d915e4",
					"type": "Encounter"
				},
				"issued": "2022-06-07T13:24:22.000+03:00",
				"resourceType": "Observation",
				"status": "final"
			}
		},
		{
			"request": {
				"method": "POST"
			},
			"resource": {
				"valueCodeableConcept": {
					"coding": [
						{
							"code": "b539f758-b24b-417f-9400-4edeca0f6e06",
							"display": "2RHZ/4RH"
						},
						{
							"system": "UgandaEMR",
							"code": "99372",
							"display": "2RHZ/4RH"
						}
					]
				},
				"contained": [
					{
						"agent": [
							{
								"role": [
									{
										"coding": [
											{
												"system": "http://terminology.hl7.org/CodeSystemv3-ParticipationType",
												"code": "AUT",
												"display": "author"
											}
										]
									}
								],
								"type": {
									"coding": [
										{
											"system": "http://terminology.hl7.org/CodeSystemprovenance-participant-type",
											"code": "author",
											"display": "Author"
										}
									]
								},
								"who": {
									"reference": "Practitioner/1c3db49d-440a-11e6-a65c-00e04c680037",
									"display": "Emerson Kaseem",
									"type": "Practitioner"
								}
							}
						],
						"activity": {
							"coding": [
								{
									"system": "http://terminology.hl7.org/CodeSystemv3-DataOperation",
									"code": "CREATE",
									"display": "create"
								}
							]
						},
						"id": "ca0fecd7-f37c-48f2-b98f-43f4f2ca020b",
						"recorded": "2022-06-07T13:13:25.000+03:00",
						"resourceType": "Provenance"
					}
				],
				"code": {
					"coding": [
						{
							"code": "159958AAAAAAAAAAAAAAAAAAAAAAAAAAAAAA",
							"display": "susceptible to anti-tuberculosis drugs"
						},
						{
							"system": "UgandaEMR",
							"code": "159958",
							"display": "susceptible to anti-tuberculosis drugs"
						}
					]
				},
				"effectiveDateTime": "2022-04-01T00:00:00+03:00",
				"subject": {
					"reference": "Patient/c350f310-fd89-44de-ad75-bb7827ca1d5b",
					"display": "Tom James (OpenMRS ID: 10V6E3)",
					"type": "Patient"
				},
				"id": "e73cd8d6-49d7-4d32-b4c1-28de10aa0067",
				"encounter": {
					"reference": "Encounter/7067e0f7-3309-41b4-8e89-fb3e77a7e537",
					"type": "Encounter"
				},
				"category": [
					{
						"coding": [
							{
								"system": "http://terminology.hl7.org/CodeSystem/observation-category",
								"code": "exam",
								"display": "Exam"
							}
						]
					}
				],
				"issued": "2022-06-07T13:13:25.000+03:00",
				"resourceType": "Observation",
				"status": "final"
			}
		},
		{
			"request": {
				"method": "POST"
			},
			"resource": {
				"contained": [
					{
						"agent": [
							{
								"role": [
									{
										"coding": [
											{
												"system": "http://terminology.hl7.org/CodeSystemv3-ParticipationType",
												"code": "AUT",
												"display": "author"
											}
										]
									}
								],
								"type": {
									"coding": [
										{
											"system": "http://terminology.hl7.org/CodeSystemprovenance-participant-type",
											"code": "author",
											"display": "Author"
										}
									]
								},
								"who": {
									"reference": "Practitioner/1c3db49d-440a-11e6-a65c-00e04c680037",
									"display": "Emerson Kaseem",
									"type": "Practitioner"
								}
							}
						],
						"activity": {
							"coding": [
								{
									"system": "http://terminology.hl7.org/CodeSystemv3-DataOperation",
									"code": "CREATE",
									"display": "create"
								}
							]
						},
						"id": "a6f34968-cb76-45cd-9dc2-1757a5a8270d",
						"recorded": "2022-06-07T13:13:25.000+03:00",
						"resourceType": "Provenance"
					}
				],
				"code": {
					"coding": [
						{
							"code": "165052AAAAAAAAAAAAAAAAAAAAAAAAAAAAAA",
							"display": "Next of kin contact"
						},
						{
							"system": "UgandaEMR",
							"code": "165052",
							"display": "Next of kin contact"
						}
					]
				},
				"valueString": "073743532",
				"effectiveDateTime": "2022-04-01T00:00:00+03:00",
				"subject": {
					"reference": "Patient/c350f310-fd89-44de-ad75-bb7827ca1d5b",
					"display": "Tom James (OpenMRS ID: 10V6E3)",
					"type": "Patient"
				},
				"id": "eab56034-90ed-4ee5-abf5-8f133ad8bb4b",
				"encounter": {
					"reference": "Encounter/7067e0f7-3309-41b4-8e89-fb3e77a7e537",
					"type": "Encounter"
				},
				"category": [
					{
						"coding": [
							{
								"system": "http://terminology.hl7.org/CodeSystem/observation-category",
								"code": "exam",
								"display": "Exam"
							}
						]
					}
				],
				"issued": "2022-06-07T13:13:25.000+03:00",
				"resourceType": "Observation",
				"status": "final"
			}
		},
		{
			"request": {
				"method": "POST"
			},
			"resource": {
				"valueCodeableConcept": {
					"coding": [
						{
							"code": "dcdac38b-30ab-102d-86b0-7a5022ba4115",
							"display": "Diagnosed with TB"
						},
						{
							"system": "UgandaEMR",
							"code": "90078",
							"display": "Diagnosed with TB"
						}
					]
				},
				"contained": [
					{
						"agent": [
							{
								"role": [
									{
										"coding": [
											{
												"system": "http://terminology.hl7.org/CodeSystemv3-ParticipationType",
												"code": "AUT",
												"display": "author"
											}
										]
									}
								],
								"type": {
									"coding": [
										{
											"system": "http://terminology.hl7.org/CodeSystemprovenance-participant-type",
											"code": "author",
											"display": "Author"
										}
									]
								},
								"who": {
									"reference": "Practitioner/1c3db49d-440a-11e6-a65c-00e04c680037",
									"display": "Emerson Kaseem",
									"type": "Practitioner"
								}
							}
						],
						"activity": {
							"coding": [
								{
									"system": "http://terminology.hl7.org/CodeSystemv3-DataOperation",
									"code": "CREATE",
									"display": "create"
								}
							]
						},
						"id": "dbeed865-64a4-4479-9a11-4658d450c89e",
						"recorded": "2022-06-07T13:13:25.000+03:00",
						"resourceType": "Provenance"
					}
				],
				"code": {
					"coding": [
						{
							"code": "dce02aa1-30ab-102d-86b0-7a5022ba4115",
							"display": "TUBERCULOSIS STATUS"
						},
						{
							"system": "UgandaEMR",
							"code": "90216",
							"display": "TUBERCULOSIS STATUS"
						}
					]
				},
				"effectiveDateTime": "2022-04-01T00:00:00+03:00",
				"subject": {
					"reference": "Patient/c350f310-fd89-44de-ad75-bb7827ca1d5b",
					"display": "Tom James (OpenMRS ID: 10V6E3)",
					"type": "Patient"
				},
				"id": "ead2872b-0dca-4609-a248-4eac47ab3f8a",
				"encounter": {
					"reference": "Encounter/7067e0f7-3309-41b4-8e89-fb3e77a7e537",
					"type": "Encounter"
				},
				"issued": "2022-06-07T13:13:25.000+03:00",
				"resourceType": "Observation",
				"status": "final"
			}
		},
		{
			"request": {
				"method": "POST"
			},
			"resource": {
				"contained": [
					{
						"agent": [
							{
								"role": [
									{
										"coding": [
											{
												"system": "http://terminology.hl7.org/CodeSystemv3-ParticipationType",
												"code": "AUT",
												"display": "author"
											}
										]
									}
								],
								"type": {
									"coding": [
										{
											"system": "http://terminology.hl7.org/CodeSystemprovenance-participant-type",
											"code": "author",
											"display": "Author"
										}
									]
								},
								"who": {
									"reference": "Practitioner/1c3db49d-440a-11e6-a65c-00e04c680037",
									"display": "Emerson Kaseem",
									"type": "Practitioner"
								}
							}
						],
						"activity": {
							"coding": [
								{
									"system": "http://terminology.hl7.org/CodeSystemv3-DataOperation",
									"code": "CREATE",
									"display": "create"
								}
							]
						},
						"id": "ef5103b9-6a19-4c24-a89e-0336b5df9653",
						"recorded": "2022-06-07T13:24:22.000+03:00",
						"resourceType": "Provenance"
					}
				],
				"code": {
					"coding": [
						{
							"code": "6965a8c4-7be5-47ee-a872-e158bd9545b1",
							"display": "TB Treatment Comments"
						},
						{
							"system": "UgandaEMR",
							"code": "165873",
							"display": "TB Treatment Comments"
						}
					]
				},
				"valueString": "Come back quickly ",
				"effectiveDateTime": "2022-04-01T00:00:00+03:00",
				"subject": {
					"reference": "Patient/c350f310-fd89-44de-ad75-bb7827ca1d5b",
					"display": "Tom James (OpenMRS ID: 10V6E3)",
					"type": "Patient"
				},
				"id": "ecccab3e-18be-4a5c-b48f-e95073f54fd3",
				"encounter": {
					"reference": "Encounter/41ff8811-23ed-43f9-b302-f90485d915e4",
					"type": "Encounter"
				},
				"category": [
					{
						"coding": [
							{
								"system": "http://terminology.hl7.org/CodeSystem/observation-category",
								"code": "exam",
								"display": "Exam"
							}
						]
					}
				],
				"issued": "2022-06-07T13:24:22.000+03:00",
				"resourceType": "Observation",
				"status": "final"
			}
		},
		{
			"request": {
				"method": "POST"
			},
			"resource": {
				"contained": [
					{
						"agent": [
							{
								"role": [
									{
										"coding": [
											{
												"system": "http://terminology.hl7.org/CodeSystemv3-ParticipationType",
												"code": "AUT",
												"display": "author"
											}
										]
									}
								],
								"type": {
									"coding": [
										{
											"system": "http://terminology.hl7.org/CodeSystemprovenance-participant-type",
											"code": "author",
											"display": "Author"
										}
									]
								},
								"who": {
									"reference": "Practitioner/1c3db49d-440a-11e6-a65c-00e04c680037",
									"display": "Emerson Kaseem",
									"type": "Practitioner"
								}
							}
						],
						"activity": {
							"coding": [
								{
									"system": "http://terminology.hl7.org/CodeSystemv3-DataOperation",
									"code": "CREATE",
									"display": "create"
								}
							]
						},
						"id": "6179bf85-44c4-46e3-b945-9cf243afef1e",
						"recorded": "2022-06-07T13:13:25.000+03:00",
						"resourceType": "Provenance"
					}
				],
				"code": {
					"coding": [
						{
							"code": "16b59b26-cd8e-46ca-9442-ecddccea3a3f",
							"display": "Tb Baseline Examination Set"
						},
						{
							"system": "UgandaEMR",
							"code": "165846",
							"display": "Tb Baseline Examination Set"
						}
					]
				},
				"valueString": "GeneXpert Test, 7764, Mycobacterium tuberculosis detected without rifampin resistance, 2022-04-01",
				"effectiveDateTime": "2022-04-01T00:00:00+03:00",
				"subject": {
					"reference": "Patient/c350f310-fd89-44de-ad75-bb7827ca1d5b",
					"display": "Tom James (OpenMRS ID: 10V6E3)",
					"type": "Patient"
				},
				"hasMember": [
					{
						"reference": "Observation/ccdc12ee-cd0b-45a7-91be-d4dbe47cb6a9",
						"type": "Observation"
					},
					{
						"reference": "Observation/8c9d06eb-1cef-4519-b968-0420357077c2",
						"type": "Observation"
					},
					{
						"reference": "Observation/b052c70d-e78e-4b2a-b58d-3e782996c4aa",
						"type": "Observation"
					},
					{
						"reference": "Observation/0d68a870-1d7c-4eac-a919-c9c7c0f90672",
						"type": "Observation"
					}
				],
				"id": "ed8ee7bc-0063-4793-b2f7-83aadf8b999f",
				"encounter": {
					"reference": "Encounter/7067e0f7-3309-41b4-8e89-fb3e77a7e537",
					"type": "Encounter"
				},
				"issued": "2022-06-07T13:13:25.000+03:00",
				"resourceType": "Observation",
				"status": "final"
			}
		},
		{
			"request": {
				"method": "POST"
			},
			"resource": {
				"contained": [
					{
						"agent": [
							{
								"role": [
									{
										"coding": [
											{
												"system": "http://terminology.hl7.org/CodeSystemv3-ParticipationType",
												"code": "AUT",
												"display": "author"
											}
										]
									}
								],
								"type": {
									"coding": [
										{
											"system": "http://terminology.hl7.org/CodeSystemprovenance-participant-type",
											"code": "author",
											"display": "Author"
										}
									]
								},
								"who": {
									"reference": "Practitioner/1c3db49d-440a-11e6-a65c-00e04c680037",
									"display": "Emerson Kaseem",
									"type": "Practitioner"
								}
							}
						],
						"activity": {
							"coding": [
								{
									"system": "http://terminology.hl7.org/CodeSystemv3-DataOperation",
									"code": "CREATE",
									"display": "create"
								}
							]
						},
						"id": "5a66b1d4-56fb-483a-83f7-406bf8c8937c",
						"recorded": "2022-06-07T13:24:22.000+03:00",
						"resourceType": "Provenance"
					}
				],
				"code": {
					"coding": [
						{
							"code": "9deeba77-cc1b-47ef-b4ab-84b22fb527f3",
							"display": "LAB RESULT SET"
						},
						{
							"system": "UgandaEMR",
							"code": "99292",
							"display": "LAB RESULT SET"
						}
					]
				},
				"valueString": "GeneXpert Test, 776553, Mycobacterium tuberculosis detected without rifampin resistance, 2022-04-01",
				"effectiveDateTime": "2022-04-01T00:00:00+03:00",
				"subject": {
					"reference": "Patient/c350f310-fd89-44de-ad75-bb7827ca1d5b",
					"display": "Tom James (OpenMRS ID: 10V6E3)",
					"type": "Patient"
				},
				"hasMember": [
					{
						"reference": "Observation/d9365617-4b14-4dfb-9e32-fe470994866e",
						"type": "Observation"
					},
					{
						"reference": "Observation/22e1d3b6-7009-4faf-9500-2ecd5915212a",
						"type": "Observation"
					},
					{
						"reference": "Observation/7f8a8020-9967-4183-bc6e-2bfada28d93d",
						"type": "Observation"
					},
					{
						"reference": "Observation/605eb644-0230-4e43-8642-2a6822aed811",
						"type": "Observation"
					}
				],
				"id": "f9f391eb-92ce-48eb-99fd-d1a2a230fbf9",
				"encounter": {
					"reference": "Encounter/41ff8811-23ed-43f9-b302-f90485d915e4",
					"type": "Encounter"
				},
				"issued": "2022-06-07T13:24:22.000+03:00",
				"resourceType": "Observation",
				"status": "final"
			}
		},
		{
			"request": {
				"method": "POST"
			},
			"resource": {
				"valueCodeableConcept": {
					"coding": [
						{
							"code": "1455AAAAAAAAAAAAAAAAAAAAAAAAAAAAAAAA",
							"display": "SMOKING"
						},
						{
							"system": "UgandaEMR",
							"code": "1455",
							"display": "SMOKING"
						}
					]
				},
				"contained": [
					{
						"agent": [
							{
								"role": [
									{
										"coding": [
											{
												"system": "http://terminology.hl7.org/CodeSystemv3-ParticipationType",
												"code": "AUT",
												"display": "author"
											}
										]
									}
								],
								"type": {
									"coding": [
										{
											"system": "http://terminology.hl7.org/CodeSystemprovenance-participant-type",
											"code": "author",
											"display": "Author"
										}
									]
								},
								"who": {
									"reference": "Practitioner/1c3db49d-440a-11e6-a65c-00e04c680037",
									"display": "Emerson Kaseem",
									"type": "Practitioner"
								}
							}
						],
						"activity": {
							"coding": [
								{
									"system": "http://terminology.hl7.org/CodeSystemv3-DataOperation",
									"code": "CREATE",
									"display": "create"
								}
							]
						},
						"id": "cd55a953-1966-44d1-902b-75bec22d6737",
						"recorded": "2022-06-07T13:13:25.000+03:00",
						"resourceType": "Provenance"
					}
				],
				"code": {
					"coding": [
						{
							"code": "927563c5-cb91-4536-b23c-563a72d3f829",
							"display": "Special Category"
						},
						{
							"system": "UgandaEMR",
							"code": "165169",
							"display": "Special Category"
						}
					]
				},
				"effectiveDateTime": "2022-04-01T00:00:00+03:00",
				"subject": {
					"reference": "Patient/c350f310-fd89-44de-ad75-bb7827ca1d5b",
					"display": "Tom James (OpenMRS ID: 10V6E3)",
					"type": "Patient"
				},
				"id": "fbbb2853-584b-4017-8d99-6d580dd34c21",
				"encounter": {
					"reference": "Encounter/7067e0f7-3309-41b4-8e89-fb3e77a7e537",
					"type": "Encounter"
				},
				"category": [
					{
						"coding": [
							{
								"system": "http://terminology.hl7.org/CodeSystem/observation-category",
								"code": "exam",
								"display": "Exam"
							}
						]
					}
				],
				"issued": "2022-06-07T13:13:25.000+03:00",
				"resourceType": "Observation",
				"status": "final"
			}
		}
	]
}
