{
  "resourceType": "Bundle",
  "type": "transaction",
  "entry": [
    {
      "resource": {
        "identifier": [
          {
            "use": "official",
            "id": "45166c8c-0b79-4bd6-adb2-4a1cdc270729",
            "type": {
              "text": "OpenMRS ID"
            },
            "value": "102FWG"
          },
          {
            "extension": [
              {
                "valueReference": {
                  "reference": "Location/8d6c993e-c2cc-11de-8d13-0010c6dffd0f",
                  "display": "Unknown",
                  "type": "Location"
                },
                "url": "http://fhir.openmrs.org/ext/patient/identifier#location"
              }
            ],
            "use": "usual",
            "id": "620caf68-6296-4818-825b-c2c0f8d8b9ed",
            "type": {
              "text": "HIV Clinic No."
            },
            "value": "KAW/02576"
          },
          {
            "use": "usual",
            "id": "51c7d619-6d24-4548-bfe7-7c07eec11595",
            "type": {
              "text": "National ID No."
            },
            "value": "CF83036101EKTK"
          }
        ],
        "address": [
          {
            "country": "Uganda",
            "use": "home",
            "id": "30694b2b-95ff-45e9-8ad6-a1b791635629"
          }
        ],
        "gender": "female",
        "active": true,
        "birthDate": "1984-01-01",
        "deceasedBoolean": false,
        "managingOrganization": {
          "reference": "Organization/wepUthscBkh",
          "identifier": {
            "system": "https://hmis.health.go.ug/",
            "use": "official",
            "value": "wepUthscBkh"
          },
          "display": "Demo Health Center",
          "type": "Organization"
        },
        "meta": {
          "lastUpdated": "2015-01-13T16:22:05.000+03:00"
        },
        "name": [
          {
            "given": ["Buffy"],
            "id": "a0b4fee9-ada9-4db7-add1-daa106fd2e13",
            "family": "Ramona"
          }
        ],
        "telecom": [
          {
            "id": "1f3fc538-b4e9-42f4-836d-eec1bec7bdd9",
            "value": "0182171939"
          }
        ],
        "id": "ce91d8f4-753a-4e2f-ada2-d67d6149de34",
        "resourceType": "Patient"
      },
      "request": {
        "method": "PUT",
        "url": "Patient/ce91d8f4-753a-4e2f-ada2-d67d6149de34"
      }
    },
    {
      "resource": {
        "resourceType": "EpisodeOfCare",
        "id": "c34b8ea4-861b-4caa-851f-9694819189ce",
        "identifier": [
          {
            "use": "usual",
            "system": "https://ugandaemr/",
            "value": "c34b8ea4-861b-4caa-851f-9694819189ce"
          }
        ],
        "status": "active",
        "type": [
          {
            "coding": [
              {
                "code": "160541AAAAAAAAAAAAAAAAAAAAAAAAAAAAAA",
                "display": "Tuberculosis treatment program"
              }
            ]
          }
        ],
        "patient": {
          "reference": "Patient/ce91d8f4-753a-4e2f-ada2-d67d6149de34",
          "type": "Patient",
          "display": "Buffy Ramona (OpenMRS ID: 102FWG)"
        },
        "managingOrganization": {
          "reference": "Organization/wepUthscBkh",
          "type": "Organization",
          "identifier": {
            "use": "official",
            "system": "https://hmis.health.go.ug/",
            "value": "wepUthscBkh"
          },
          "display": "Demo Health Center"
        },
        "period": {
          "start": "2021-12-13T00:00:00+03:00"
        }
      },
      "request": {
        "method": "POST"
      }
    },
    {
      "resource": {
        "partOf": {
          "reference": "Encounter/5fd71655-b340-4dd5-8029-66284b661fc4",
          "type": "Encounter"
        },
        "period": {
          "start": "2021-12-13T00:00:00+03:00"
        },
        "subject": {
          "reference": "Patient/ce91d8f4-753a-4e2f-ada2-d67d6149de34",
          "display": "Buffy Ramona (OpenMRS ID: 102FWG)",
          "type": "Patient"
        },
        "type": [
          {
            "coding": [
              {
                "system": "http://fhir.openmrs.org/code-system/encounter-type",
                "code": "334bf97e-28e2-4a27-8727-a5ce31c7cd66",
                "display": "TB Summary (Enrollment)"
              }
            ]
          }
        ],
        "meta": {
          "tag": [
            {
              "system": "http://fhir.openmrs.org/ext/encounter-tag",
              "code": "encounter",
              "display": "Encounter"
            }
          ]
        },
        "serviceProvider": {
          "reference": "Organization/wepUthscBkh",
          "identifier": {
            "system": "https://hmis.health.go.ug/",
            "use": "official",
            "value": "wepUthscBkh"
          },
          "display": "Demo Health Center",
          "type": "Organization"
        },
        "location": [
          {
            "location": {
              "reference": "Location/86863db4-6101-4ecf-9a86-5e716d6504e4",
              "display": "ART Clinic",
              "type": "Location"
            }
          }
        ],
        "id": "735f0752-5141-4d83-afe7-123004ca8a3b",
        "episodeOfCare": {
          "reference": "EpisodeOfCare/c34b8ea4-861b-4caa-851f-9694819189ce"
        },
        "class": {
          "system": "http://terminology.hl7.org/CodeSystem/v3-ActCode",
          "code": "AMB"
        },
        "resourceType": "Encounter",
        "status": "unknown"
      },
      "request": {
        "method": "POST"
      }
    },
    {
      "resource": {
        "partOf": {
          "reference": "Encounter/5fd71655-b340-4dd5-8029-66284b661fc4",
          "type": "Encounter"
        },
        "period": {
          "start": "2021-12-13T00:00:00+03:00"
        },
        "subject": {
          "reference": "Patient/ce91d8f4-753a-4e2f-ada2-d67d6149de34",
          "display": "Buffy Ramona (OpenMRS ID: 102FWG)",
          "type": "Patient"
        },
        "type": [
          {
            "coding": [
              {
                "system": "http://fhir.openmrs.org/code-system/encounter-type",
                "code": "455bad1f-5e97-4ee9-9558-ff1df8808732",
                "display": "TB Encounter (Followup)"
              }
            ]
          }
        ],
        "participant": [
          {
            "individual": {
              "reference": "Practitioner/c263f788-22dd-4405-9158-b89de5814ef7",
              "identifier": {
                "value": "114-9"
              },
              "display": "Eric Beck (Identifier: 114-9)",
              "type": "Practitioner"
            }
          }
        ],
        "contained": [
          {
            "id": "2333ad55-a433-4a59-8ce4-79f9e190ad57"
          }
        ],
        "meta": {
          "tag": [
            {
              "system": "http://fhir.openmrs.org/ext/encounter-tag",
              "code": "encounter",
              "display": "Encounter"
            }
          ]
        },
        "serviceProvider": {
          "reference": "Organization/wepUthscBkh",
          "identifier": {
            "system": "https://hmis.health.go.ug/",
            "use": "official",
            "value": "wepUthscBkh"
          },
          "display": "Demo Health Center",
          "type": "Organization"
        },
        "location": [
          {
            "location": {
              "reference": "Location/8ab22b55-9a17-4121-bf08-6134a9a2439f",
              "display": "TB Clinic",
              "type": "Location"
            }
          }
        ],
        "id": "b7fc3b0a-5f74-434c-a36c-9374c75d5ab6",
        "episodeOfCare": {
          "reference": "EpisodeOfCare/c34b8ea4-861b-4caa-851f-9694819189ce"
        },
        "class": {
          "system": "http://terminology.hl7.org/CodeSystem/v3-ActCode",
          "code": "AMB"
        },
        "resourceType": "Encounter",
        "status": "unknown"
      },
      "request": {
        "method": "POST"
      }
    },
    {
      "resource": {
        "code": {
          "coding": [
            {
              "code": "0f998893-ab24-4ee4-922a-f197ac5fd6e6",
              "display": "Lab Number"
            },
            {
              "system": "UgandaEMR",
              "code": "165845",
              "display": "Lab Number"
            }
          ]
        },
        "valueString": "826523753",
        "effectiveDateTime": "2021-12-13T00:00:00+03:00",
        "subject": {
          "reference": "Patient/ce91d8f4-753a-4e2f-ada2-d67d6149de34",
          "display": "Buffy Ramona (OpenMRS ID: 102FWG)",
          "type": "Patient"
        },
        "id": "023ffc1f-10fb-4b80-bf33-749254b614d6",
        "encounter": {
          "reference": "Encounter/735f0752-5141-4d83-afe7-123004ca8a3b",
          "type": "Encounter"
        },
        "issued": "2022-01-28T15:24:49.000+03:00",
        "resourceType": "Observation",
        "status": "final"
      }
    },
    {
      "resource": {
        "valueBoolean": true,
        "contained": [
          {
            "id": "65672a42-69fd-47da-9869-724205f2d729",
            "recorded": "2022-01-28T15:24:49.000+03:00"
          }
        ],
        "code": {
          "coding": [
            {
              "code": "56a01780-5fcb-46ce-88d2-18f2f320c252",
              "display": "Started On TB First line"
            },
            {
              "system": "UgandaEMR",
              "code": "165837",
              "display": "Started On TB First line"
            }
          ]
        },
        "effectiveDateTime": "2021-12-13T00:00:00+03:00",
        "subject": {
          "reference": "Patient/ce91d8f4-753a-4e2f-ada2-d67d6149de34",
          "display": "Buffy Ramona (OpenMRS ID: 102FWG)",
          "type": "Patient"
        },
        "id": "04242369-0b86-4aac-8a86-06c3e7a26a40",
        "encounter": {
          "reference": "Encounter/735f0752-5141-4d83-afe7-123004ca8a3b",
          "type": "Encounter"
        },
        "category": [
          {
            "coding": [
              {
                "system": "http://terminology.hl7.org/CodeSystem/observation-category",
                "code": "exam",
                "display": "Exam"
              }
            ]
          }
        ],
        "issued": "2022-01-28T15:24:49.000+03:00",
        "resourceType": "Observation",
        "status": "final"
      }
    },
    {
      "resource": {
        "contained": [
          {
            "id": "4b920068-fa87-4d69-8726-b02a54ab50b6",
            "recorded": "2022-01-28T15:24:49.000+03:00"
          }
        ],
        "code": {
          "coding": [
            {
              "code": "16b59b26-cd8e-46ca-9442-ecddccea3a3f",
              "display": "Tb Baseline Examination Set"
            },
            {
              "system": "UgandaEMR",
              "code": "165846",
              "display": "Tb Baseline Examination Set"
            }
          ]
        },
        "valueString": "GeneXpert Test, 2021-12-13, POSITIVE, 826523753",
        "effectiveDateTime": "2021-12-13T00:00:00+03:00",
        "subject": {
          "reference": "Patient/ce91d8f4-753a-4e2f-ada2-d67d6149de34",
          "display": "Buffy Ramona (OpenMRS ID: 102FWG)",
          "type": "Patient"
        },
        "hasMember": [
          {
            "reference": "Observation/c3449afc-997f-4391-83a5-da3abc9e0898",
            "type": "Observation"
          },
          {
            "reference": "Observation/0ce80451-2467-49aa-b288-9a98288d22d7",
            "type": "Observation"
          },
          {
            "reference": "Observation/c5189b04-76b0-4deb-852e-bb4d6f23a260",
            "type": "Observation"
          },
          {
            "reference": "Observation/023ffc1f-10fb-4b80-bf33-749254b614d6",
            "type": "Observation"
          }
        ],
        "id": "0634973b-cfdf-421d-8c26-22b9c3d50f38",
        "encounter": {
          "reference": "Encounter/735f0752-5141-4d83-afe7-123004ca8a3b",
          "type": "Encounter"
        },
        "issued": "2022-01-28T15:24:49.000+03:00",
        "resourceType": "Observation",
        "status": "final"
      }
    },
    {
      "resource": {
        "contained": [
          {
            "id": "a0f81036-83fc-42a2-856d-d8dd96ef14d9",
            "recorded": "2022-01-28T15:24:49.000+03:00"
          }
        ],
        "code": {
          "coding": [
            {
              "code": "d2f31713-aada-4d0d-9340-014b2371bdd8",
              "display": "Examination Date"
            },
            {
              "system": "UgandaEMR",
              "code": "164431",
              "display": "Examination Date"
            }
          ]
        },
        "effectiveDateTime": "2021-12-13T00:00:00+03:00",
        "subject": {
          "reference": "Patient/ce91d8f4-753a-4e2f-ada2-d67d6149de34",
          "display": "Buffy Ramona (OpenMRS ID: 102FWG)",
          "type": "Patient"
        },
        "valueDateTime": "2021-12-13T00:00:00+03:00",
        "id": "0ce80451-2467-49aa-b288-9a98288d22d7",
        "encounter": {
          "reference": "Encounter/735f0752-5141-4d83-afe7-123004ca8a3b",
          "type": "Encounter"
        },
        "category": [
          {
            "coding": [
              {
                "system": "http://terminology.hl7.org/CodeSystem/observation-category",
                "code": "exam",
                "display": "Exam"
              }
            ]
          }
        ],
        "issued": "2022-01-28T15:24:49.000+03:00",
        "resourceType": "Observation",
        "status": "final"
      }
    },
    {
      "resource": {
        "contained": [
          {
            "id": "3a3e0e4f-9e19-4ec1-96f7-da22c79f3c8f"
          }
        ],
        "code": {
          "coding": [
            {
              "code": "6965a8c4-7be5-47ee-a872-e158bd9545b1",
              "display": "TB Treatment Comments"
            },
            {
              "system": "UgandaEMR",
              "code": "165873",
              "display": "TB Treatment Comments"
            }
          ]
        },
        "valueString": "N/a",
        "effectiveDateTime": "2021-12-13T00:00:00+03:00",
        "subject": {
          "reference": "Patient/ce91d8f4-753a-4e2f-ada2-d67d6149de34",
          "display": "Buffy Ramona (OpenMRS ID: 102FWG)",
          "type": "Patient"
        },
        "id": "102aa24d-a7b9-4ff5-8b6a-cd241a881c6b",
        "encounter": {
          "reference": "Encounter/b7fc3b0a-5f74-434c-a36c-9374c75d5ab6",
          "type": "Encounter"
        },
        "category": [
          {
            "coding": [
              {
                "system": "http://terminology.hl7.org/CodeSystem/observation-category",
                "code": "exam",
                "display": "Exam"
              }
            ]
          }
        ],
        "issued": "2022-01-28T15:28:02.000+03:00",
        "resourceType": "Observation",
        "status": "final"
      }
    },
    {
      "resource": {
        "valueCodeableConcept": {
          "coding": [
            {
              "code": "dcdebc02-30ab-102d-86b0-7a5022ba4115",
              "display": "ULCERS"
            }
          ]
        },
        "contained": [
          {
            "id": "ed471377-a29f-4e66-b063-b5ccd3be559c"
          }
        ],
        "code": {
          "coding": [
            {
              "code": "dce0e02a-30ab-102d-86b0-7a5022ba4115",
              "display": "SYMPTOM, DIAGNOSIS, OR OPPORTUNISTIC INFECTION"
            },
            {
              "system": "UgandaEMR",
              "code": "90251",
              "display": "SYMPTOM, DIAGNOSIS, OR OPPORTUNISTIC INFECTION"
            }
          ]
        },
        "effectiveDateTime": "2021-12-13T00:00:00+03:00",
        "subject": {
          "reference": "Patient/ce91d8f4-753a-4e2f-ada2-d67d6149de34",
          "display": "Buffy Ramona (OpenMRS ID: 102FWG)",
          "type": "Patient"
        },
        "id": "11c10292-5951-4062-be32-933a22ed32d8",
        "encounter": {
          "reference": "Encounter/b7fc3b0a-5f74-434c-a36c-9374c75d5ab6",
          "type": "Encounter"
        },
        "issued": "2022-01-28T15:28:02.000+03:00",
        "resourceType": "Observation",
        "status": "final"
      }
    },
    {
      "resource": {
        "valueCodeableConcept": {
          "coding": [
            {
              "code": "b3c43c5e-1987-42c1-a7b3-2c71dc58c126",
              "display": "New Case"
            }
          ]
        },
        "contained": [
          {
            "id": "abd4677e-0840-42d5-8258-fb5c1292a633",
            "recorded": "2022-01-28T15:24:49.000+03:00"
          }
        ],
        "code": {
          "coding": [
            {
              "code": "e077f196-c19a-417f-adc6-b175a3343bfd",
              "display": "Type of TB Patient"
            },
            {
              "system": "UgandaEMR",
              "code": "99386",
              "display": "Type of TB Patient"
            }
          ]
        },
        "effectiveDateTime": "2021-12-13T00:00:00+03:00",
        "subject": {
          "reference": "Patient/ce91d8f4-753a-4e2f-ada2-d67d6149de34",
          "display": "Buffy Ramona (OpenMRS ID: 102FWG)",
          "type": "Patient"
        },
        "id": "186e76a2-010b-4e5e-9160-b3d791fbad81",
        "encounter": {
          "reference": "Encounter/735f0752-5141-4d83-afe7-123004ca8a3b",
          "type": "Encounter"
        },
        "category": [
          {
            "coding": [
              {
                "system": "http://terminology.hl7.org/CodeSystem/observation-category",
                "code": "exam",
                "display": "Exam"
              }
            ]
          }
        ],
        "issued": "2022-01-28T15:24:49.000+03:00",
        "resourceType": "Observation",
        "status": "final"
      }
    },
    {
      "resource": {
        "valueCodeableConcept": {
          "coding": [
            {
              "code": "8846c03f-67bf-4aeb-8ca7-39bf79b4ebf3",
              "display": "GREEN"
            }
          ]
        },
        "contained": [
          {
            "id": "45ac53e0-6de4-4099-a770-47145beb7d5d"
          }
        ],
        "code": {
          "coding": [
            {
              "code": "5f86d19d-9546-4466-89c0-6f80c101191b",
              "display": "MID-UPPER ARM CIRCUMFERENCE-CODE"
            },
            {
              "system": "UgandaEMR",
              "code": "99030",
              "display": "MID-UPPER ARM CIRCUMFERENCE-CODE"
            }
          ]
        },
        "effectiveDateTime": "2021-12-13T00:00:00+03:00",
        "subject": {
          "reference": "Patient/ce91d8f4-753a-4e2f-ada2-d67d6149de34",
          "display": "Buffy Ramona (OpenMRS ID: 102FWG)",
          "type": "Patient"
        },
        "id": "1974cce4-648f-4ebb-b07c-b22c4b9171a1",
        "encounter": {
          "reference": "Encounter/b7fc3b0a-5f74-434c-a36c-9374c75d5ab6",
          "type": "Encounter"
        },
        "category": [
          {
            "coding": [
              {
                "system": "http://terminology.hl7.org/CodeSystem/observation-category",
                "code": "exam",
                "display": "Exam"
              }
            ]
          }
        ],
        "issued": "2022-01-28T15:28:02.000+03:00",
        "resourceType": "Observation",
        "status": "final"
      }
    },
    {
      "resource": {
        "contained": [
          {
            "id": "240b06ef-873c-4f67-8e1c-3212859f4eaa"
          }
        ],
        "referenceRange": [
          {
            "high": {
              "value": 250
            },
            "low": {
              "value": 0
            },
            "type": {
              "coding": [
                {
                  "system": "http://fhir.openmrs.org/ext/obs/reference-range",
                  "code": "absolute"
                }
              ]
            }
          }
        ],
        "code": {
          "coding": [
            {
              "code": "5089AAAAAAAAAAAAAAAAAAAAAAAAAAAAAAAA",
              "display": "Weight (kg)"
            },
            {
              "system": "http://loinc.org",
              "code": "3141-9",
              "display": "Weight (kg)"
            },
            {
              "system": "http://snomed.info/sct",
              "code": "27113001",
              "display": "Weight (kg)"
            },
            {
              "system": "https://openconceptlab.org/orgs/CIEL/sources/CIEL",
              "code": "5089",
              "display": "Weight (kg)"
            },
            {
              "system": "UgandaEMR",
              "code": "5089",
              "display": "Weight (kg)"
            },
            {
              "system": "PIH Malawi",
              "code": "5089",
              "display": "null"
            },
            {
              "system": "AMPATH",
              "code": "5089",
              "display": "null"
            },
            {
              "system": "LOINC",
              "code": "3141-9",
              "display": "null"
            },
            {
              "system": "SNOMED CT",
              "code": "27113001",
              "display": "null"
            },
            {
              "system": "PIH",
              "code": "5089",
              "display": "null"
            },
            {
              "system": "org.openmrs.module.mdrtb",
              "code": "WEIGHT",
              "display": "null"
            },
            {
              "system": "CIEL",
              "code": "5089",
              "display": "null"
            }
          ]
        },
        "effectiveDateTime": "2021-12-13T00:00:00+03:00",
        "subject": {
          "reference": "Patient/ce91d8f4-753a-4e2f-ada2-d67d6149de34",
          "display": "Buffy Ramona (OpenMRS ID: 102FWG)",
          "type": "Patient"
        },
        "id": "1bd21b3f-6184-4b77-ac9b-be6ed5379663",
        "encounter": {
          "reference": "Encounter/b7fc3b0a-5f74-434c-a36c-9374c75d5ab6",
          "type": "Encounter"
        },
        "category": [
          {
            "coding": [
              {
                "system": "http://terminology.hl7.org/CodeSystem/observation-category",
                "code": "exam",
                "display": "Exam"
              }
            ]
          }
        ],
        "issued": "2022-01-28T15:28:02.000+03:00",
        "resourceType": "Observation",
        "status": "final",
        "valueQuantity": {
          "unit": "kg",
          "value": 65
        }
      }
    },
    {
      "resource": {
        "contained": [
          {
            "id": "c952c8ea-7601-4307-b646-6b932c7d65b3",
            "recorded": "2022-01-28T15:24:49.000+03:00"
          }
        ],
        "code": {
          "coding": [
            {
              "code": "ab505422-26d9-41f1-a079-c3d222000440",
              "display": "BASELINE REGIMEN START DATE"
            },
            {
              "system": "UgandaEMR",
              "code": "99161",
              "display": "BASELINE REGIMEN START DATE"
            }
          ]
        },
        "effectiveDateTime": "2021-12-13T00:00:00+03:00",
        "subject": {
          "reference": "Patient/ce91d8f4-753a-4e2f-ada2-d67d6149de34",
          "display": "Buffy Ramona (OpenMRS ID: 102FWG)",
          "type": "Patient"
        },
        "valueDateTime": "2014-11-19T00:00:00+03:00",
        "id": "1e530e4f-48db-498e-9e86-3b7b974f0b8f",
        "encounter": {
          "reference": "Encounter/735f0752-5141-4d83-afe7-123004ca8a3b",
          "type": "Encounter"
        },
        "issued": "2022-01-28T15:24:49.000+03:00",
        "resourceType": "Observation",
        "status": "final"
      }
    },
    {
      "resource": {
        "contained": [
          {
            "id": "c7fe8926-6642-4671-8899-c6cf3dcf90cf",
            "recorded": "2022-01-28T15:24:49.000+03:00"
          }
        ],
        "code": {
          "coding": [
            {
              "code": "d2f31713-aada-4d0d-9340-014b2371bdd8",
              "display": "Examination Date"
            },
            {
              "system": "UgandaEMR",
              "code": "164431",
              "display": "Examination Date"
            }
          ]
        },
        "effectiveDateTime": "2021-12-13T00:00:00+03:00",
        "subject": {
          "reference": "Patient/ce91d8f4-753a-4e2f-ada2-d67d6149de34",
          "display": "Buffy Ramona (OpenMRS ID: 102FWG)",
          "type": "Patient"
        },
        "valueDateTime": "2021-12-13T00:00:00+03:00",
        "id": "23e11de6-5626-4dbb-b3b1-302d5ca242ed",
        "encounter": {
          "reference": "Encounter/735f0752-5141-4d83-afe7-123004ca8a3b",
          "type": "Encounter"
        },
        "category": [
          {
            "coding": [
              {
                "system": "http://terminology.hl7.org/CodeSystem/observation-category",
                "code": "exam",
                "display": "Exam"
              }
            ]
          }
        ],
        "issued": "2022-01-28T15:24:49.000+03:00",
        "resourceType": "Observation",
        "status": "final"
      }
    },
    {
      "resource": {
        "valueBoolean": true,
        "contained": [
          {
            "id": "6a1699ef-1d7c-4435-8edf-2ffbc5c3688a"
          }
        ],
        "code": {
          "coding": [
            {
              "code": "b16f3f1d-aba3-4f8b-bf2d-116162c0b4fb",
              "display": "ARV Drugs given"
            },
            {
              "system": "UgandaEMR",
              "code": "165871",
              "display": "ARV Drugs given"
            }
          ]
        },
        "effectiveDateTime": "2021-12-13T00:00:00+03:00",
        "subject": {
          "reference": "Patient/ce91d8f4-753a-4e2f-ada2-d67d6149de34",
          "display": "Buffy Ramona (OpenMRS ID: 102FWG)",
          "type": "Patient"
        },
        "id": "25f3f18a-55b2-47cf-b4c8-bc52e605be08",
        "encounter": {
          "reference": "Encounter/b7fc3b0a-5f74-434c-a36c-9374c75d5ab6",
          "type": "Encounter"
        },
        "category": [
          {
            "coding": [
              {
                "system": "http://terminology.hl7.org/CodeSystem/observation-category",
                "code": "exam",
                "display": "Exam"
              }
            ]
          }
        ],
        "issued": "2022-01-28T15:28:02.000+03:00",
        "resourceType": "Observation",
        "status": "final"
      }
    },
    {
      "resource": {
        "contained": [
          {
            "id": "702db73c-0ea6-490f-8100-32677d60b979"
          }
        ],
        "code": {
          "coding": [
            {
              "code": "a202ecd2-3ae8-4b67-8c4f-779a6ce9d7ff",
              "display": "Tuberculosis Medication Set"
            },
            {
              "system": "UgandaEMR",
              "code": "165305",
              "display": "Tuberculosis Medication Set"
            }
          ]
        },
        "effectiveDateTime": "2021-12-13T00:00:00+03:00",
        "subject": {
          "reference": "Patient/ce91d8f4-753a-4e2f-ada2-d67d6149de34",
          "display": "Buffy Ramona (OpenMRS ID: 102FWG)",
          "type": "Patient"
        },
        "hasMember": [
          {
            "reference": "Observation/6d630f5e-233b-4477-a310-0a3382eaa994",
            "type": "Observation"
          },
          {
            "reference": "Observation/33a4d74a-298e-4e5c-827e-bf7e8437534a",
            "type": "Observation"
          },
          {
            "reference": "Observation/a4172360-c2cc-4a47-b49f-b7176b4e4751",
            "type": "Observation"
          },
          {
            "reference": "Observation/b403008c-9301-4eca-8f8b-31f7a7ea22b2",
            "type": "Observation"
          }
        ],
        "id": "291748ef-1fa5-4dac-98a7-3b7c5fb22bd9",
        "encounter": {
          "reference": "Encounter/b7fc3b0a-5f74-434c-a36c-9374c75d5ab6",
          "type": "Encounter"
        },
        "issued": "2022-01-28T15:28:02.000+03:00",
        "resourceType": "Observation",
        "status": "final"
      }
    },
    {
      "resource": {
        "contained": [
          {
            "id": "15d6b3f3-f30a-4347-a2f8-66f1559f343f"
          }
        ],
        "code": {
          "coding": [
            {
              "code": "1343AAAAAAAAAAAAAAAAAAAAAAAAAAAAAAAA",
              "display": "MID-UPPER ARM CIRCUMFERENCE"
            },
            {
              "system": "http://snomed.info/sct",
              "code": "284473002",
              "display": "MID-UPPER ARM CIRCUMFERENCE"
            },
            {
              "system": "https://openconceptlab.org/orgs/CIEL/sources/CIEL",
              "code": "1343",
              "display": "MID-UPPER ARM CIRCUMFERENCE"
            },
            {
              "system": "UgandaEMR",
              "code": "1343",
              "display": "MID-UPPER ARM CIRCUMFERENCE"
            },
            {
              "system": "SNOMED CT",
              "code": "284473002",
              "display": "null"
            },
            {
              "system": "AMPATH",
              "code": "1343",
              "display": "null"
            },
            {
              "system": "PIH",
              "code": "1290",
              "display": "null"
            },
            {
              "system": "CIEL",
              "code": "1343",
              "display": "null"
            }
          ]
        },
        "effectiveDateTime": "2021-12-13T00:00:00+03:00",
        "subject": {
          "reference": "Patient/ce91d8f4-753a-4e2f-ada2-d67d6149de34",
          "display": "Buffy Ramona (OpenMRS ID: 102FWG)",
          "type": "Patient"
        },
        "id": "2be52012-1444-4b9f-a29f-9a1bc9bf13b8",
        "encounter": {
          "reference": "Encounter/b7fc3b0a-5f74-434c-a36c-9374c75d5ab6",
          "type": "Encounter"
        },
        "category": [
          {
            "coding": [
              {
                "system": "http://terminology.hl7.org/CodeSystem/observation-category",
                "code": "exam",
                "display": "Exam"
              }
            ]
          }
        ],
        "issued": "2022-01-28T15:28:02.000+03:00",
        "resourceType": "Observation",
        "status": "final",
        "valueQuantity": {
          "unit": "cm",
          "value": 22
        }
      }
    },
    {
      "resource": {
        "contained": [
          {
            "id": "89cca8a7-4005-4a41-b0b1-9078c66babc7",
            "recorded": "2022-01-28T15:24:49.000+03:00"
          }
        ],
        "code": {
          "coding": [
            {
              "code": "162729AAAAAAAAAAAAAAAAAAAAAAAAAAAAAA",
              "display": "Next of kin name (text)"
            },
            {
              "system": "UgandaEMR",
              "code": "162729",
              "display": "Next of kin name (text)"
            }
          ]
        },
        "valueString": "Tesla Pan",
        "effectiveDateTime": "2021-12-13T00:00:00+03:00",
        "subject": {
          "reference": "Patient/ce91d8f4-753a-4e2f-ada2-d67d6149de34",
          "display": "Buffy Ramona (OpenMRS ID: 102FWG)",
          "type": "Patient"
        },
        "id": "31d3629e-1996-4e78-a09a-1ea7b69fa012",
        "encounter": {
          "reference": "Encounter/735f0752-5141-4d83-afe7-123004ca8a3b",
          "type": "Encounter"
        },
        "issued": "2022-01-28T15:24:49.000+03:00",
        "resourceType": "Observation",
        "status": "final"
      }
    },
    {
      "resource": {
        "contained": [
          {
            "id": "b106dcb7-c51f-4a49-b22c-94613cb1847a"
          }
        ],
        "code": {
          "coding": [
            {
              "code": "160856AAAAAAAAAAAAAAAAAAAAAAAAAAAAAA",
              "display": "Quantity of medication prescribed per dose"
            },
            {
              "system": "UgandaEMR",
              "code": "160856",
              "display": "Quantity of medication prescribed per dose"
            }
          ]
        },
        "effectiveDateTime": "2021-12-13T00:00:00+03:00",
        "subject": {
          "reference": "Patient/ce91d8f4-753a-4e2f-ada2-d67d6149de34",
          "display": "Buffy Ramona (OpenMRS ID: 102FWG)",
          "type": "Patient"
        },
        "id": "33a4d74a-298e-4e5c-827e-bf7e8437534a",
        "encounter": {
          "reference": "Encounter/b7fc3b0a-5f74-434c-a36c-9374c75d5ab6",
          "type": "Encounter"
        },
        "issued": "2022-01-28T15:28:02.000+03:00",
        "resourceType": "Observation",
        "status": "final",
        "valueQuantity": {
          "value": 30
        }
      }
    },
    {
      "resource": {
        "contained": [
          {
            "id": "cec1948b-c58f-493d-9a9c-f3a1fc5db09c",
            "recorded": "2022-01-28T15:24:49.000+03:00"
          }
        ],
        "code": {
          "coding": [
            {
              "code": "0f998893-ab24-4ee4-922a-f197ac5fd6e6",
              "display": "Lab Number"
            },
            {
              "system": "UgandaEMR",
              "code": "165845",
              "display": "Lab Number"
            }
          ]
        },
        "valueString": "52735723",
        "effectiveDateTime": "2021-12-13T00:00:00+03:00",
        "subject": {
          "reference": "Patient/ce91d8f4-753a-4e2f-ada2-d67d6149de34",
          "display": "Buffy Ramona (OpenMRS ID: 102FWG)",
          "type": "Patient"
        },
        "id": "4af144e1-e83d-40d7-b9be-72702d960bdd",
        "encounter": {
          "reference": "Encounter/735f0752-5141-4d83-afe7-123004ca8a3b",
          "type": "Encounter"
        },
        "issued": "2022-01-28T15:24:49.000+03:00",
        "resourceType": "Observation",
        "status": "final"
      }
    },
    {
      "resource": {
        "contained": [
          {
            "id": "ffcd2640-7ee6-4e22-abfe-4b6987230642",
            "recorded": "2022-01-28T15:24:49.000+03:00"
          }
        ],
        "code": {
          "coding": [
            {
              "code": "23e28311-3c17-4137-8eee-69860621b80b",
              "display": "TREATMENT SUPPORTER NAME"
            },
            {
              "system": "UgandaEMR",
              "code": "99142",
              "display": "TREATMENT SUPPORTER NAME"
            }
          ]
        },
        "valueString": "Tesla Pan",
        "effectiveDateTime": "2021-12-13T00:00:00+03:00",
        "subject": {
          "reference": "Patient/ce91d8f4-753a-4e2f-ada2-d67d6149de34",
          "display": "Buffy Ramona (OpenMRS ID: 102FWG)",
          "type": "Patient"
        },
        "id": "58539320-79a1-4b83-98f4-2d6db097f98f",
        "encounter": {
          "reference": "Encounter/735f0752-5141-4d83-afe7-123004ca8a3b",
          "type": "Encounter"
        },
        "issued": "2022-01-28T15:24:49.000+03:00",
        "resourceType": "Observation",
        "status": "final"
      }
    },
    {
      "resource": {
        "valueCodeableConcept": {
          "coding": [
            {
              "code": "f16a5fea-42c8-4ce6-a7b4-894e8fed9204",
              "display": "New Diabetes Mellitus"
            }
          ]
        },
        "contained": [
          {
            "id": "6af55976-1ac8-4fc2-822e-66e35575392a",
            "recorded": "2022-01-28T15:24:49.000+03:00"
          }
        ],
        "code": {
          "coding": [
            {
              "code": "93d5f1ea-df3a-470d-b60f-dbe84d717574",
              "display": "Diabetes Test Results"
            },
            {
              "system": "UgandaEMR",
              "code": "165852",
              "display": "Diabetes Test Results"
            }
          ]
        },
        "effectiveDateTime": "2021-12-13T00:00:00+03:00",
        "subject": {
          "reference": "Patient/ce91d8f4-753a-4e2f-ada2-d67d6149de34",
          "display": "Buffy Ramona (OpenMRS ID: 102FWG)",
          "type": "Patient"
        },
        "id": "688f9bae-04af-45b4-b150-b639cf701683",
        "encounter": {
          "reference": "Encounter/735f0752-5141-4d83-afe7-123004ca8a3b",
          "type": "Encounter"
        },
        "category": [
          {
            "coding": [
              {
                "system": "http://terminology.hl7.org/CodeSystem/observation-category",
                "code": "exam",
                "display": "Exam"
              }
            ]
          }
        ],
        "issued": "2022-01-28T15:24:49.000+03:00",
        "resourceType": "Observation",
        "status": "final"
      }
    },
    {
      "resource": {
        "contained": [
          {
            "id": "5c5aad1d-5ceb-42d3-9a39-9526f7f66044",
            "recorded": "2022-01-28T15:24:49.000+03:00"
          }
        ],
        "code": {
          "coding": [
            {
              "code": "7326297e-0ccd-4355-9b86-dde1c056e2c2",
              "display": "Date Started On TB First line"
            },
            {
              "system": "UgandaEMR",
              "code": "165838",
              "display": "Date Started On TB First line"
            }
          ]
        },
        "effectiveDateTime": "2021-12-13T00:00:00+03:00",
        "subject": {
          "reference": "Patient/ce91d8f4-753a-4e2f-ada2-d67d6149de34",
          "display": "Buffy Ramona (OpenMRS ID: 102FWG)",
          "type": "Patient"
        },
        "valueDateTime": "2021-12-13T00:00:00+03:00",
        "id": "6b1ca72b-d519-4c1e-a151-ece3d33f84d2",
        "encounter": {
          "reference": "Encounter/735f0752-5141-4d83-afe7-123004ca8a3b",
          "type": "Encounter"
        },
        "category": [
          {
            "coding": [
              {
                "system": "http://terminology.hl7.org/CodeSystem/observation-category",
                "code": "exam",
                "display": "Exam"
              }
            ]
          }
        ],
        "issued": "2022-01-28T15:24:49.000+03:00",
        "resourceType": "Observation",
        "status": "final"
      }
    },
    {
      "resource": {
        "contained": [
          {
            "id": "cb56ccc0-fc1f-45dd-a76a-5e82aa20534f"
          }
        ],
        "code": {
          "coding": [
            {
              "code": "dcac04cf-30ab-102d-86b0-7a5022ba4115",
              "display": "RETURN VISIT DATE"
            },
            {
              "system": "UgandaEMR",
              "code": "5096",
              "display": "RETURN VISIT DATE"
            }
          ]
        },
        "effectiveDateTime": "2021-12-13T00:00:00+03:00",
        "subject": {
          "reference": "Patient/ce91d8f4-753a-4e2f-ada2-d67d6149de34",
          "display": "Buffy Ramona (OpenMRS ID: 102FWG)",
          "type": "Patient"
        },
        "valueDateTime": "2021-12-13T00:00:00+03:00",
        "id": "6becae9e-cb53-4a10-a500-ab51350a1911",
        "encounter": {
          "reference": "Encounter/b7fc3b0a-5f74-434c-a36c-9374c75d5ab6",
          "type": "Encounter"
        },
        "issued": "2022-01-28T15:28:02.000+03:00",
        "resourceType": "Observation",
        "status": "final"
      }
    },
    {
      "resource": {
        "contained": [
          {
            "id": "df97a0eb-f342-4d54-a506-00a9017f3cd4"
          }
        ],
        "code": {
          "coding": [
            {
              "code": "159368AAAAAAAAAAAAAAAAAAAAAAAAAAAAAA",
              "display": "Medication duration"
            },
            {
              "system": "UgandaEMR",
              "code": "159368",
              "display": "Medication duration"
            }
          ]
        },
        "effectiveDateTime": "2021-12-13T00:00:00+03:00",
        "subject": {
          "reference": "Patient/ce91d8f4-753a-4e2f-ada2-d67d6149de34",
          "display": "Buffy Ramona (OpenMRS ID: 102FWG)",
          "type": "Patient"
        },
        "id": "6d630f5e-233b-4477-a310-0a3382eaa994",
        "encounter": {
          "reference": "Encounter/b7fc3b0a-5f74-434c-a36c-9374c75d5ab6",
          "type": "Encounter"
        },
        "issued": "2022-01-28T15:28:02.000+03:00",
        "resourceType": "Observation",
        "status": "final",
        "valueQuantity": {
          "value": 30
        }
      }
    },
    {
      "resource": {
        "contained": [
          {
            "id": "8d31a0e2-4c40-4101-b946-cc98909db8dc"
          }
        ],
        "code": {
          "coding": [
            {
              "code": "d2f31713-aada-4d0d-9340-014b2371bdd8",
              "display": "Examination Date"
            },
            {
              "system": "UgandaEMR",
              "code": "164431",
              "display": "Examination Date"
            }
          ]
        },
        "effectiveDateTime": "2021-12-13T00:00:00+03:00",
        "subject": {
          "reference": "Patient/ce91d8f4-753a-4e2f-ada2-d67d6149de34",
          "display": "Buffy Ramona (OpenMRS ID: 102FWG)",
          "type": "Patient"
        },
        "valueDateTime": "2021-12-13T00:00:00+03:00",
        "id": "6ea57f08-9a76-4622-979a-24559aae2e51",
        "encounter": {
          "reference": "Encounter/b7fc3b0a-5f74-434c-a36c-9374c75d5ab6",
          "type": "Encounter"
        },
        "category": [
          {
            "coding": [
              {
                "system": "http://terminology.hl7.org/CodeSystem/observation-category",
                "code": "exam",
                "display": "Exam"
              }
            ]
          }
        ],
        "issued": "2022-01-28T15:28:02.000+03:00",
        "resourceType": "Observation",
        "status": "final"
      }
    },
    {
      "resource": {
        "contained": [
          {
            "id": "f0fcb246-462c-49be-bf51-4b8af817daf3"
          }
        ],
        "code": {
          "coding": [
            {
              "code": "9deeba77-cc1b-47ef-b4ab-84b22fb527f3",
              "display": "LAB RESULT SET"
            },
            {
              "system": "UgandaEMR",
              "code": "99292",
              "display": "LAB RESULT SET"
            }
          ]
        },
        "valueString": "2021-12-13",
        "effectiveDateTime": "2021-12-13T00:00:00+03:00",
        "subject": {
          "reference": "Patient/ce91d8f4-753a-4e2f-ada2-d67d6149de34",
          "display": "Buffy Ramona (OpenMRS ID: 102FWG)",
          "type": "Patient"
        },
        "hasMember": [
          {
            "reference": "Observation/6ea57f08-9a76-4622-979a-24559aae2e51",
            "type": "Observation"
          }
        ],
        "id": "819b2cf7-0b58-423b-a46f-6da7c3b275ee",
        "encounter": {
          "reference": "Encounter/b7fc3b0a-5f74-434c-a36c-9374c75d5ab6",
          "type": "Encounter"
        },
        "issued": "2022-01-28T15:28:02.000+03:00",
        "resourceType": "Observation",
        "status": "final"
      }
    },
    {
      "resource": {
        "valueCodeableConcept": {
          "coding": [
            {
              "code": "b539f758-b24b-417f-9400-4edeca0f6e06",
              "display": "2RHZ/4RH"
            }
          ]
        },
        "contained": [
          {
            "id": "80e865a9-0ae5-49a2-88df-642eaeb363b7",
            "recorded": "2022-01-28T15:24:49.000+03:00"
          }
        ],
        "code": {
          "coding": [
            {
              "code": "159958AAAAAAAAAAAAAAAAAAAAAAAAAAAAAA",
              "display": "susceptible to anti-tuberculosis drugs"
            },
            {
              "system": "UgandaEMR",
              "code": "159958",
              "display": "susceptible to anti-tuberculosis drugs"
            }
          ]
        },
        "effectiveDateTime": "2021-12-13T00:00:00+03:00",
        "subject": {
          "reference": "Patient/ce91d8f4-753a-4e2f-ada2-d67d6149de34",
          "display": "Buffy Ramona (OpenMRS ID: 102FWG)",
          "type": "Patient"
        },
        "id": "826bc732-adc3-4aa9-9b96-f83e15ac08ad",
        "encounter": {
          "reference": "Encounter/735f0752-5141-4d83-afe7-123004ca8a3b",
          "type": "Encounter"
        },
        "category": [
          {
            "coding": [
              {
                "system": "http://terminology.hl7.org/CodeSystem/observation-category",
                "code": "exam",
                "display": "Exam"
              }
            ]
          }
        ],
        "issued": "2022-01-28T15:24:49.000+03:00",
        "resourceType": "Observation",
        "status": "final"
      }
    },
    {
      "resource": {
        "valueCodeableConcept": {
          "coding": [
            {
              "code": "1065AAAAAAAAAAAAAAAAAAAAAAAAAAAAAAAA",
              "display": "Yes"
            },
            {
              "system": "http://snomed.info/sct",
              "code": "373066001",
              "display": "Yes"
            },
            {
              "system": "https://openconceptlab.org/orgs/CIEL/sources/CIEL",
              "code": "1065",
              "display": "Yes"
            }
          ]
        },
        "code": {
          "coding": [
            {
              "code": "c3d744f6-00ef-4774-b9a7-d33c58f5b014",
              "display": "Cotrim Given"
            },
            {
              "system": "UgandaEMR",
              "code": "99413",
              "display": "Cotrim Given"
            }
          ]
        },
        "effectiveDateTime": "2021-12-13T00:00:00+03:00",
        "subject": {
          "reference": "Patient/ce91d8f4-753a-4e2f-ada2-d67d6149de34",
          "display": "Buffy Ramona (OpenMRS ID: 102FWG)",
          "type": "Patient"
        },
        "id": "82a90982-6405-4b06-bd27-1848e2790a1f",
        "encounter": {
          "reference": "Encounter/b7fc3b0a-5f74-434c-a36c-9374c75d5ab6",
          "type": "Encounter"
        },
        "category": [
          {
            "coding": [
              {
                "system": "http://terminology.hl7.org/CodeSystem/observation-category",
                "code": "exam",
                "display": "Exam"
              }
            ]
          }
        ],
        "issued": "2022-01-28T15:28:02.000+03:00",
        "resourceType": "Observation",
        "status": "final"
      }
    },
    {
      "resource": {
        "referenceRange": [
          {
            "high": {
              "value": 272
            },
            "low": {
              "value": 10
            },
            "type": {
              "coding": [
                {
                  "system": "http://fhir.openmrs.org/ext/obs/reference-range",
                  "code": "absolute"
                }
              ]
            }
          }
        ],
        "code": {
          "coding": [
            {
              "code": "5090AAAAAAAAAAAAAAAAAAAAAAAAAAAAAAAA",
              "display": "Height (cm)"
            },
            {
              "system": "http://loinc.org",
              "code": "8302-2",
              "display": "Height (cm)"
            },
            {
              "system": "http://snomed.info/sct",
              "code": "50373000",
              "display": "Height (cm)"
            },
            {
              "system": "https://openconceptlab.org/orgs/CIEL/sources/CIEL",
              "code": "5090",
              "display": "Height (cm)"
            },
            {
              "system": "UgandaEMR",
              "code": "5090",
              "display": "Height (cm)"
            },
            {
              "system": "LOINC",
              "code": "8302-2",
              "display": "null"
            },
            {
              "system": "SNOMED CT",
              "code": "50373000",
              "display": "null"
            },
            {
              "system": "AMPATH",
              "code": "5090",
              "display": "null"
            },
            {
              "system": "PIH Malawi",
              "code": "5090",
              "display": "null"
            },
            {
              "system": "CIEL",
              "code": "5090",
              "display": "null"
            },
            {
              "system": "PIH",
              "code": "5090",
              "display": "null"
            }
          ]
        },
        "effectiveDateTime": "2021-12-13T00:00:00+03:00",
        "subject": {
          "reference": "Patient/ce91d8f4-753a-4e2f-ada2-d67d6149de34",
          "display": "Buffy Ramona (OpenMRS ID: 102FWG)",
          "type": "Patient"
        },
        "id": "84ddd185-bb44-445f-ad98-49dc8ad97a1e",
        "encounter": {
          "reference": "Encounter/b7fc3b0a-5f74-434c-a36c-9374c75d5ab6",
          "type": "Encounter"
        },
        "category": [
          {
            "coding": [
              {
                "system": "http://terminology.hl7.org/CodeSystem/observation-category",
                "code": "exam",
                "display": "Exam"
              }
            ]
          }
        ],
        "issued": "2022-01-28T15:28:02.000+03:00",
        "resourceType": "Observation",
        "status": "final",
        "valueQuantity": {
          "unit": "cm",
          "value": 165
        }
      }
    },
    {
      "resource": {
        "code": {
          "coding": [
            {
              "code": "105ef9de-ad90-4c08-bcd5-ab48f74f6287",
              "display": "ART Number"
            },
            {
              "system": "UgandaEMR",
              "code": "99431",
              "display": "ART Number"
            }
          ]
        },
        "valueString": "KAW/02576",
        "effectiveDateTime": "2021-12-13T00:00:00+03:00",
        "subject": {
          "reference": "Patient/ce91d8f4-753a-4e2f-ada2-d67d6149de34",
          "display": "Buffy Ramona (OpenMRS ID: 102FWG)",
          "type": "Patient"
        },
        "id": "88ccb849-77f4-4a96-8347-975df73c1f06",
        "encounter": {
          "reference": "Encounter/735f0752-5141-4d83-afe7-123004ca8a3b",
          "type": "Encounter"
        },
        "category": [
          {
            "coding": [
              {
                "system": "http://terminology.hl7.org/CodeSystem/observation-category",
                "code": "exam",
                "display": "Exam"
              }
            ]
          }
        ],
        "issued": "2022-01-28T15:24:49.000+03:00",
        "resourceType": "Observation",
        "status": "final"
      }
    },
    {
      "resource": {
        "valueCodeableConcept": {
          "coding": [
            {
              "code": "dcdab74d-30ab-102d-86b0-7a5022ba4115",
              "display": "+"
            }
          ]
        },
        "code": {
          "coding": [
            {
              "code": "dce0532c-30ab-102d-86b0-7a5022ba4115",
              "display": "TUBERCULOSIS SMEAR RESULT"
            },
            {
              "system": "UgandaEMR",
              "code": "90225",
              "display": "TUBERCULOSIS SMEAR RESULT"
            }
          ]
        },
        "effectiveDateTime": "2021-12-13T00:00:00+03:00",
        "subject": {
          "reference": "Patient/ce91d8f4-753a-4e2f-ada2-d67d6149de34",
          "display": "Buffy Ramona (OpenMRS ID: 102FWG)",
          "type": "Patient"
        },
        "id": "8a9a6f09-1b00-435c-935b-f882893c270b",
        "encounter": {
          "reference": "Encounter/735f0752-5141-4d83-afe7-123004ca8a3b",
          "type": "Encounter"
        },
        "issued": "2022-01-28T15:24:49.000+03:00",
        "resourceType": "Observation",
        "status": "final"
      }
    },
    {
      "resource": {
        "valueCodeableConcept": {
          "coding": [
            {
              "code": "dca2670e-30ab-102d-86b0-7a5022ba4115",
              "display": "STARTED"
            }
          ]
        },
        "code": {
          "coding": [
            {
              "code": "dca25616-30ab-102d-86b0-7a5022ba4115",
              "display": "ANTI-RETROVIRAL THERAPY STATUS"
            },
            {
              "system": "UgandaEMR",
              "code": "1358",
              "display": "ANTI-RETROVIRAL THERAPY STATUS"
            }
          ]
        },
        "effectiveDateTime": "2021-12-13T00:00:00+03:00",
        "subject": {
          "reference": "Patient/ce91d8f4-753a-4e2f-ada2-d67d6149de34",
          "display": "Buffy Ramona (OpenMRS ID: 102FWG)",
          "type": "Patient"
        },
        "id": "a2d02605-1140-48c7-b864-c55274b1f5bb",
        "encounter": {
          "reference": "Encounter/735f0752-5141-4d83-afe7-123004ca8a3b",
          "type": "Encounter"
        },
        "issued": "2022-01-28T15:24:49.000+03:00",
        "resourceType": "Observation",
        "status": "final"
      }
    },
    {
      "resource": {
        "code": {
          "coding": [
            {
              "code": "165052AAAAAAAAAAAAAAAAAAAAAAAAAAAAAA",
              "display": "Next of kin contact"
            },
            {
              "system": "UgandaEMR",
              "code": "165052",
              "display": "Next of kin contact"
            }
          ]
        },
        "valueString": "0774735383",
        "effectiveDateTime": "2021-12-13T00:00:00+03:00",
        "subject": {
          "reference": "Patient/ce91d8f4-753a-4e2f-ada2-d67d6149de34",
          "display": "Buffy Ramona (OpenMRS ID: 102FWG)",
          "type": "Patient"
        },
        "id": "a2ff82e4-1973-47e5-8393-c383294ae11e",
        "encounter": {
          "reference": "Encounter/735f0752-5141-4d83-afe7-123004ca8a3b",
          "type": "Encounter"
        },
        "category": [
          {
            "coding": [
              {
                "system": "http://terminology.hl7.org/CodeSystem/observation-category",
                "code": "exam",
                "display": "Exam"
              }
            ]
          }
        ],
        "issued": "2022-01-28T15:24:49.000+03:00",
        "resourceType": "Observation",
        "status": "final"
      }
    },
    {
      "resource": {
        "code": {
          "coding": [
            {
              "code": "2e2ec250-f5d3-4de7-8c70-a458f42441e6",
              "display": "Unit TB No"
            },
            {
              "system": "UgandaEMR",
              "code": "165826",
              "display": "Unit TB No"
            }
          ]
        },
        "valueString": "86364633",
        "effectiveDateTime": "2021-12-13T00:00:00+03:00",
        "subject": {
          "reference": "Patient/ce91d8f4-753a-4e2f-ada2-d67d6149de34",
          "display": "Buffy Ramona (OpenMRS ID: 102FWG)",
          "type": "Patient"
        },
        "id": "a30a1dca-0148-491b-a695-5deb788ae3ff",
        "encounter": {
          "reference": "Encounter/735f0752-5141-4d83-afe7-123004ca8a3b",
          "type": "Encounter"
        },
        "category": [
          {
            "coding": [
              {
                "system": "http://terminology.hl7.org/CodeSystem/observation-category",
                "code": "exam",
                "display": "Exam"
              }
            ]
          }
        ],
        "issued": "2022-01-28T15:24:49.000+03:00",
        "resourceType": "Observation",
        "status": "final"
      }
    },
    {
      "resource": {
        "code": {
          "coding": [
            {
              "code": "1444AAAAAAAAAAAAAAAAAAAAAAAAAAAAAAAA",
              "display": "Medication strength"
            },
            {
              "system": "UgandaEMR",
              "code": "1444",
              "display": "Medication strength"
            }
          ]
        },
        "valueString": "300mg",
        "effectiveDateTime": "2021-12-13T00:00:00+03:00",
        "subject": {
          "reference": "Patient/ce91d8f4-753a-4e2f-ada2-d67d6149de34",
          "display": "Buffy Ramona (OpenMRS ID: 102FWG)",
          "type": "Patient"
        },
        "id": "a4172360-c2cc-4a47-b49f-b7176b4e4751",
        "encounter": {
          "reference": "Encounter/b7fc3b0a-5f74-434c-a36c-9374c75d5ab6",
          "type": "Encounter"
        },
        "issued": "2022-01-28T15:28:02.000+03:00",
        "resourceType": "Observation",
        "status": "final"
      }
    },
    {
      "resource": {
        "valueCodeableConcept": {
          "coding": [
            {
              "code": "5619AAAAAAAAAAAAAAAAAAAAAAAAAAAAAAAA",
              "display": "Health care provider"
            }
          ]
        },
        "code": {
          "coding": [
            {
              "code": "805a9d40-8922-4fb0-8208-7c0fdf57936a",
              "display": "Treatment Supporter Type"
            },
            {
              "system": "UgandaEMR",
              "code": "165828",
              "display": "Treatment Supporter Type"
            }
          ]
        },
        "effectiveDateTime": "2021-12-13T00:00:00+03:00",
        "subject": {
          "reference": "Patient/ce91d8f4-753a-4e2f-ada2-d67d6149de34",
          "display": "Buffy Ramona (OpenMRS ID: 102FWG)",
          "type": "Patient"
        },
        "id": "a6ba5155-2893-41cb-b39a-a8b9a144c3db",
        "encounter": {
          "reference": "Encounter/735f0752-5141-4d83-afe7-123004ca8a3b",
          "type": "Encounter"
        },
        "category": [
          {
            "coding": [
              {
                "system": "http://terminology.hl7.org/CodeSystem/observation-category",
                "code": "exam",
                "display": "Exam"
              }
            ]
          }
        ],
        "issued": "2022-01-28T15:24:49.000+03:00",
        "resourceType": "Observation",
        "status": "final"
      }
    },
    {
      "resource": {
        "valueCodeableConcept": {
          "coding": [
            {
              "code": "dc9897e7-30ab-102d-86b0-7a5022ba4115",
              "display": "RIFAMPICIN ISONIAZID PYRAZINAMIDE AND ETHAMBUTOL"
            }
          ]
        },
        "code": {
          "coding": [
            {
              "code": "1282AAAAAAAAAAAAAAAAAAAAAAAAAAAAAAAA",
              "display": "Medication orders"
            },
            {
              "system": "UgandaEMR",
              "code": "1282",
              "display": "Medication orders"
            }
          ]
        },
        "effectiveDateTime": "2021-12-13T00:00:00+03:00",
        "subject": {
          "reference": "Patient/ce91d8f4-753a-4e2f-ada2-d67d6149de34",
          "display": "Buffy Ramona (OpenMRS ID: 102FWG)",
          "type": "Patient"
        },
        "id": "b403008c-9301-4eca-8f8b-31f7a7ea22b2",
        "encounter": {
          "reference": "Encounter/b7fc3b0a-5f74-434c-a36c-9374c75d5ab6",
          "type": "Encounter"
        },
        "issued": "2022-01-28T15:28:02.000+03:00",
        "resourceType": "Observation",
        "status": "final"
      }
    },
    {
      "resource": {
        "valueCodeableConcept": {
          "coding": [
            {
              "code": "6e46ac6b-944d-4a66-a994-b99ae90d4fed",
              "display": "Known Positive"
            }
          ]
        },
        "code": {
          "coding": [
            {
              "code": "5737ab4e-53f9-418e-94f4-35da78ab884f",
              "display": "HIV Positive Category"
            },
            {
              "system": "UgandaEMR",
              "code": "165396",
              "display": "HIV Positive Category"
            }
          ]
        },
        "effectiveDateTime": "2021-12-13T00:00:00+03:00",
        "subject": {
          "reference": "Patient/ce91d8f4-753a-4e2f-ada2-d67d6149de34",
          "display": "Buffy Ramona (OpenMRS ID: 102FWG)",
          "type": "Patient"
        },
        "id": "bc711029-552d-4c74-912d-baf83ad642bb",
        "encounter": {
          "reference": "Encounter/b7fc3b0a-5f74-434c-a36c-9374c75d5ab6",
          "type": "Encounter"
        },
        "issued": "2022-01-28T15:28:02.000+03:00",
        "resourceType": "Observation",
        "status": "final"
      }
    },
    {
      "resource": {
        "valueCodeableConcept": {
          "coding": [
            {
              "code": "2cf5644d-73a7-42f2-b18c-f773f40b648c",
              "display": "GeneXpert Test"
            }
          ]
        },
        "code": {
          "coding": [
            {
              "code": "1eb51d98-a49f-4a9a-87a1-6c3541b5713a",
              "display": "Baseline TB Test"
            },
            {
              "system": "UgandaEMR",
              "code": "165844",
              "display": "Baseline TB Test"
            }
          ]
        },
        "effectiveDateTime": "2021-12-13T00:00:00+03:00",
        "subject": {
          "reference": "Patient/ce91d8f4-753a-4e2f-ada2-d67d6149de34",
          "display": "Buffy Ramona (OpenMRS ID: 102FWG)",
          "type": "Patient"
        },
        "id": "c3449afc-997f-4391-83a5-da3abc9e0898",
        "encounter": {
          "reference": "Encounter/735f0752-5141-4d83-afe7-123004ca8a3b",
          "type": "Encounter"
        },
        "category": [
          {
            "coding": [
              {
                "system": "http://terminology.hl7.org/CodeSystem/observation-category",
                "code": "exam",
                "display": "Exam"
              }
            ]
          }
        ],
        "issued": "2022-01-28T15:24:49.000+03:00",
        "resourceType": "Observation",
        "status": "final"
      }
    },
    {
      "resource": {
        "valueCodeableConcept": {
          "coding": [
            {
              "code": "dc9816bd-30ab-102d-86b0-7a5022ba4115",
              "display": "NORMAL"
            }
          ]
        },
        "contained": [
          {
            "id": "0f2e6622-8b74-4fe4-93b4-9d8951333e70"
          }
        ],
        "code": {
          "coding": [
            {
              "code": "165050AAAAAAAAAAAAAAAAAAAAAAAAAAAAAA",
              "display": "Nutrition Assesment"
            },
            {
              "system": "UgandaEMR",
              "code": "165050",
              "display": "Nutrition Assesment"
            }
          ]
        },
        "effectiveDateTime": "2021-12-13T00:00:00+03:00",
        "subject": {
          "reference": "Patient/ce91d8f4-753a-4e2f-ada2-d67d6149de34",
          "display": "Buffy Ramona (OpenMRS ID: 102FWG)",
          "type": "Patient"
        },
        "id": "c4524f0a-3091-4044-a46e-155e73826b8a",
        "encounter": {
          "reference": "Encounter/b7fc3b0a-5f74-434c-a36c-9374c75d5ab6",
          "type": "Encounter"
        },
        "category": [
          {
            "coding": [
              {
                "system": "http://terminology.hl7.org/CodeSystem/observation-category",
                "code": "exam",
                "display": "Exam"
              }
            ]
          }
        ],
        "issued": "2022-01-28T15:28:02.000+03:00",
        "resourceType": "Observation",
        "status": "final"
      }
    },
    {
      "resource": {
        "valueCodeableConcept": {
          "coding": [
            {
              "code": "dc866728-30ab-102d-86b0-7a5022ba4115",
              "display": "POSITIVE"
            }
          ]
        },
        "contained": [
          {
            "id": "88a9b9c5-5f42-4623-b58e-71c337406a69",
            "recorded": "2022-01-28T15:24:49.000+03:00"
          }
        ],
        "code": {
          "coding": [
            {
              "code": "162202AAAAAAAAAAAAAAAAAAAAAAAAAAAAAA",
              "display": "Tuberculosis polymerase chain reaction with rifampin resistance checking"
            },
            {
              "system": "UgandaEMR",
              "code": "162202",
              "display": "Tuberculosis polymerase chain reaction with rifampin resistance checking"
            }
          ]
        },
        "effectiveDateTime": "2021-12-13T00:00:00+03:00",
        "subject": {
          "reference": "Patient/ce91d8f4-753a-4e2f-ada2-d67d6149de34",
          "display": "Buffy Ramona (OpenMRS ID: 102FWG)",
          "type": "Patient"
        },
        "id": "c5189b04-76b0-4deb-852e-bb4d6f23a260",
        "encounter": {
          "reference": "Encounter/735f0752-5141-4d83-afe7-123004ca8a3b",
          "type": "Encounter"
        },
        "category": [
          {
            "coding": [
              {
                "system": "http://terminology.hl7.org/CodeSystem/observation-category",
                "code": "laboratory",
                "display": "Laboratory"
              }
            ]
          }
        ],
        "issued": "2022-01-28T15:24:49.000+03:00",
        "resourceType": "Observation",
        "status": "final"
      }
    },
    {
      "resource": {
        "contained": [
          {
            "id": "6330b0ee-b79c-43b2-9e40-84c538884d23",
            "recorded": "2022-01-28T15:24:49.000+03:00"
          }
        ],
        "code": {
          "coding": [
            {
              "code": "d2f31713-aada-4d0d-9340-014b2371bdd8",
              "display": "Examination Date"
            },
            {
              "system": "UgandaEMR",
              "code": "164431",
              "display": "Examination Date"
            }
          ]
        },
        "effectiveDateTime": "2021-12-13T00:00:00+03:00",
        "subject": {
          "reference": "Patient/ce91d8f4-753a-4e2f-ada2-d67d6149de34",
          "display": "Buffy Ramona (OpenMRS ID: 102FWG)",
          "type": "Patient"
        },
        "valueDateTime": "2021-12-13T00:00:00+03:00",
        "id": "cd234ddf-dd03-4381-bb60-e888472b94b1",
        "encounter": {
          "reference": "Encounter/735f0752-5141-4d83-afe7-123004ca8a3b",
          "type": "Encounter"
        },
        "category": [
          {
            "coding": [
              {
                "system": "http://terminology.hl7.org/CodeSystem/observation-category",
                "code": "exam",
                "display": "Exam"
              }
            ]
          }
        ],
        "issued": "2022-01-28T15:24:49.000+03:00",
        "resourceType": "Observation",
        "status": "final"
      }
    },
    {
      "resource": {
        "valueCodeableConcept": {
          "coding": [
            {
              "code": "89753861-f946-4c2a-9aeb-e6cabbb2dc25",
              "display": "Non-Digital Community DOTS"
            }
          ]
        },
        "contained": [
          {
            "id": "e1ad13ca-22a9-4718-aea3-1e91233b4012"
          }
        ],
        "code": {
          "coding": [
            {
              "code": "9e4e93fc-dcc0-4d36-9738-c0a5a489baa1",
              "display": "TB Treatment Model"
            },
            {
              "system": "UgandaEMR",
              "code": "165869",
              "display": "TB Treatment Model"
            }
          ]
        },
        "effectiveDateTime": "2021-12-13T00:00:00+03:00",
        "subject": {
          "reference": "Patient/ce91d8f4-753a-4e2f-ada2-d67d6149de34",
          "display": "Buffy Ramona (OpenMRS ID: 102FWG)",
          "type": "Patient"
        },
        "id": "d0dc77c3-ef9e-47e9-9c57-511984ccc3ec",
        "encounter": {
          "reference": "Encounter/b7fc3b0a-5f74-434c-a36c-9374c75d5ab6",
          "type": "Encounter"
        },
        "category": [
          {
            "coding": [
              {
                "system": "http://terminology.hl7.org/CodeSystem/observation-category",
                "code": "exam",
                "display": "Exam"
              }
            ]
          }
        ],
        "issued": "2022-01-28T15:28:02.000+03:00",
        "resourceType": "Observation",
        "status": "final"
      }
    },
    {
      "resource": {
        "contained": [
          {
            "id": "0e4190bc-b039-4a2e-9877-8d7fedfadbc0",
            "recorded": "2022-01-28T15:24:49.000+03:00"
          }
        ],
        "code": {
          "coding": [
            {
              "code": "67e9ec2f-4c72-408b-8122-3706909d77ec",
              "display": "DISTRICT TUBERCULOSIS NUMBER"
            },
            {
              "system": "UgandaEMR",
              "code": "99031",
              "display": "DISTRICT TUBERCULOSIS NUMBER"
            }
          ]
        },
        "valueString": "275237523",
        "effectiveDateTime": "2021-12-13T00:00:00+03:00",
        "subject": {
          "reference": "Patient/ce91d8f4-753a-4e2f-ada2-d67d6149de34",
          "display": "Buffy Ramona (OpenMRS ID: 102FWG)",
          "type": "Patient"
        },
        "id": "e0b8cc7d-7b74-4846-b510-6d5120ce8045",
        "encounter": {
          "reference": "Encounter/735f0752-5141-4d83-afe7-123004ca8a3b",
          "type": "Encounter"
        },
        "issued": "2022-01-28T15:24:49.000+03:00",
        "resourceType": "Observation",
        "status": "final"
      }
    },
    {
      "resource": {
        "contained": [
          {
            "id": "eabe2d9f-3fee-4497-a2a2-7e838ab5a663",
            "recorded": "2022-01-28T15:24:49.000+03:00"
          }
        ],
        "code": {
          "coding": [
            {
              "code": "2e412ead-4f7c-4589-a1e2-2d3a43928927",
              "display": "Diabetes Monitoring Set"
            },
            {
              "system": "UgandaEMR",
              "code": "165857",
              "display": "Diabetes Monitoring Set"
            }
          ]
        },
        "valueString": "2021-12-13, Random Blood sugar, New Diabetes Mellitus",
        "effectiveDateTime": "2021-12-13T00:00:00+03:00",
        "subject": {
          "reference": "Patient/ce91d8f4-753a-4e2f-ada2-d67d6149de34",
          "display": "Buffy Ramona (OpenMRS ID: 102FWG)",
          "type": "Patient"
        },
        "hasMember": [
          {
            "reference": "Observation/23e11de6-5626-4dbb-b3b1-302d5ca242ed",
            "type": "Observation"
          },
          {
            "reference": "Observation/e653a78c-85fc-4cc3-a266-917b37b894ec",
            "type": "Observation"
          },
          {
            "reference": "Observation/688f9bae-04af-45b4-b150-b639cf701683",
            "type": "Observation"
          }
        ],
        "id": "e1c0e4cb-c0bc-4b8b-b271-4e3013389d24",
        "encounter": {
          "reference": "Encounter/735f0752-5141-4d83-afe7-123004ca8a3b",
          "type": "Encounter"
        },
        "issued": "2022-01-28T15:24:49.000+03:00",
        "resourceType": "Observation",
        "status": "final"
      }
    },
    {
      "resource": {
        "contained": [
          {
            "id": "780189fc-ceb5-4c7b-8241-d06d4db58dd9",
            "recorded": "2022-01-28T15:24:49.000+03:00"
          }
        ],
        "code": {
          "coding": [
            {
              "code": "16b59b26-cd8e-46ca-9442-ecddccea3a3f",
              "display": "Tb Baseline Examination Set"
            },
            {
              "system": "UgandaEMR",
              "code": "165846",
              "display": "Tb Baseline Examination Set"
            }
          ]
        },
        "valueString": "52735723, 2021-12-13, +, TUBERCULOSIS SMEAR RESULT",
        "effectiveDateTime": "2021-12-13T00:00:00+03:00",
        "subject": {
          "reference": "Patient/ce91d8f4-753a-4e2f-ada2-d67d6149de34",
          "display": "Buffy Ramona (OpenMRS ID: 102FWG)",
          "type": "Patient"
        },
        "hasMember": [
          {
            "reference": "Observation/4af144e1-e83d-40d7-b9be-72702d960bdd",
            "type": "Observation"
          },
          {
            "reference": "Observation/cd234ddf-dd03-4381-bb60-e888472b94b1",
            "type": "Observation"
          },
          {
            "reference": "Observation/8a9a6f09-1b00-435c-935b-f882893c270b",
            "type": "Observation"
          },
          {
            "reference": "Observation/f0275131-a5a7-495c-9ce0-49e43f776944",
            "type": "Observation"
          }
        ],
        "id": "e4000f60-adf8-466b-a493-567342d2a286",
        "encounter": {
          "reference": "Encounter/735f0752-5141-4d83-afe7-123004ca8a3b",
          "type": "Encounter"
        },
        "issued": "2022-01-28T15:24:49.000+03:00",
        "resourceType": "Observation",
        "status": "final"
      }
    },
    {
      "resource": {
        "valueCodeableConcept": {
          "coding": [
            {
              "code": "9b0ca481-9546-4846-a963-a5d57b2aa3f1",
              "display": "Random Blood sugar"
            }
          ]
        },
        "contained": [
          {
            "id": "a9845088-eef5-4456-a95c-1b7300ef6eaf",
            "recorded": "2022-01-28T15:24:49.000+03:00"
          }
        ],
        "code": {
          "coding": [
            {
              "code": "c92173bf-98bc-4770-a267-065b6e9730ac",
              "display": "Diabetes Test Done"
            },
            {
              "system": "UgandaEMR",
              "code": "165851",
              "display": "Diabetes Test Done"
            }
          ]
        },
        "effectiveDateTime": "2021-12-13T00:00:00+03:00",
        "subject": {
          "reference": "Patient/ce91d8f4-753a-4e2f-ada2-d67d6149de34",
          "display": "Buffy Ramona (OpenMRS ID: 102FWG)",
          "type": "Patient"
        },
        "id": "e653a78c-85fc-4cc3-a266-917b37b894ec",
        "encounter": {
          "reference": "Encounter/735f0752-5141-4d83-afe7-123004ca8a3b",
          "type": "Encounter"
        },
        "category": [
          {
            "coding": [
              {
                "system": "http://terminology.hl7.org/CodeSystem/observation-category",
                "code": "exam",
                "display": "Exam"
              }
            ]
          }
        ],
        "issued": "2022-01-28T15:24:49.000+03:00",
        "resourceType": "Observation",
        "status": "final"
      }
    },
    {
      "resource": {
        "valueCodeableConcept": {
          "coding": [
            {
              "code": "6e46ac6b-944d-4a66-a994-b99ae90d4fed",
              "display": "Known Positive"
            }
          ]
        },
        "code": {
          "coding": [
            {
              "code": "5737ab4e-53f9-418e-94f4-35da78ab884f",
              "display": "HIV Positive Category"
            },
            {
              "system": "UgandaEMR",
              "code": "165396",
              "display": "HIV Positive Category"
            }
          ]
        },
        "effectiveDateTime": "2021-12-13T00:00:00+03:00",
        "subject": {
          "reference": "Patient/ce91d8f4-753a-4e2f-ada2-d67d6149de34",
          "display": "Buffy Ramona (OpenMRS ID: 102FWG)",
          "type": "Patient"
        },
        "id": "ea2bf897-6c8d-47fc-bc64-07ecb72f9ac2",
        "encounter": {
          "reference": "Encounter/735f0752-5141-4d83-afe7-123004ca8a3b",
          "type": "Encounter"
        },
        "issued": "2022-01-28T15:24:49.000+03:00",
        "resourceType": "Observation",
        "status": "final"
      }
    },
    {
      "resource": {
        "valueCodeableConcept": {
          "coding": [
            {
              "code": "dce0532c-30ab-102d-86b0-7a5022ba4115",
              "display": "TUBERCULOSIS SMEAR RESULT"
            }
          ]
        },
        "code": {
          "coding": [
            {
              "code": "1eb51d98-a49f-4a9a-87a1-6c3541b5713a",
              "display": "Baseline TB Test"
            },
            {
              "system": "UgandaEMR",
              "code": "165844",
              "display": "Baseline TB Test"
            }
          ]
        },
        "effectiveDateTime": "2021-12-13T00:00:00+03:00",
        "subject": {
          "reference": "Patient/ce91d8f4-753a-4e2f-ada2-d67d6149de34",
          "display": "Buffy Ramona (OpenMRS ID: 102FWG)",
          "type": "Patient"
        },
        "id": "f0275131-a5a7-495c-9ce0-49e43f776944",
        "encounter": {
          "reference": "Encounter/735f0752-5141-4d83-afe7-123004ca8a3b",
          "type": "Encounter"
        },
        "category": [
          {
            "coding": [
              {
                "system": "http://terminology.hl7.org/CodeSystem/observation-category",
                "code": "exam",
                "display": "Exam"
              }
            ]
          }
        ],
        "issued": "2022-01-28T15:24:49.000+03:00",
        "resourceType": "Observation",
        "status": "final"
      }
    },
    {
      "resource": {
        "valueCodeableConcept": {
          "coding": [
            {
              "code": "d7134dc4-ca6f-4cf4-b085-3f13ede07a54",
              "display": "Pulmonary Bacteriologically confirmed PTB"
            }
          ]
        },
        "code": {
          "coding": [
            {
              "code": "d45871ee-62d6-4d4d-b905-f7b75a3fd3bb",
              "display": "TB DISEASE CLASSIFICATION"
            },
            {
              "system": "UgandaEMR",
              "code": "99379",
              "display": "TB DISEASE CLASSIFICATION"
            }
          ]
        },
        "effectiveDateTime": "2021-12-13T00:00:00+03:00",
        "subject": {
          "reference": "Patient/ce91d8f4-753a-4e2f-ada2-d67d6149de34",
          "display": "Buffy Ramona (OpenMRS ID: 102FWG)",
          "type": "Patient"
        },
        "id": "f2790cd9-c985-4f7d-a9ad-5efaacd32601",
        "encounter": {
          "reference": "Encounter/735f0752-5141-4d83-afe7-123004ca8a3b",
          "type": "Encounter"
        },
        "category": [
          {
            "coding": [
              {
                "system": "http://terminology.hl7.org/CodeSystem/observation-category",
                "code": "exam",
                "display": "Exam"
              }
            ]
          }
        ],
        "issued": "2022-01-28T15:24:49.000+03:00",
        "resourceType": "Observation",
        "status": "final"
      }
    }
  ]
}
